REVNUM:,NSMA WG16.99.050
REVDAT:,19990520
ANTMAN:,KATHREIN
MODNUM:,721387
DESCR1:,Omni
DESCR2:,3 dBd - Vertical polarization
DESCR3:,360 degree
DTDATA:,19960118
LOWFRQ:,440
HGHFRQ:,470
GUNITS:,DBD/DBR
MDGAIN:,3.0
AZWIDT:,360
ELWIDT:,30.0
ELTILT:,0.0
ANTLEN:,1.14
ANTWID:,0.02
ANTDEP:,0.02
ANTWGT:,1.2
PATTYP:,TYPICAL
NOFREQ:,1
PATFRE:,450.0
NUMCUT:,2
PATCUT:,AZ
POLARI:,V/V
NUPOIN:,360
FSTLST:,-180,179
-180.000,0.000,
-179.000,0.000,
-178.000,0.000,
-177.000,0.000,
-176.000,0.000,
-175.000,0.000,
-174.000,0.000,
-173.000,0.000,
-172.000,0.000,
-171.000,0.000,
-170.000,0.000,
-169.000,0.000,
-168.000,0.000,
-167.000,0.000,
-166.000,0.000,
-165.000,0.000,
-164.000,0.000,
-163.000,0.000,
-162.000,0.000,
-161.000,0.000,
-160.000,0.000,
-159.000,0.000,
-158.000,0.000,
-157.000,0.000,
-156.000,0.000,
-155.000,0.000,
-154.000,0.000,
-153.000,0.000,
-152.000,0.000,
-151.000,0.000,
-150.000,0.000,
-149.000,0.000,
-148.000,0.000,
-147.000,0.000,
-146.000,0.000,
-145.000,0.000,
-144.000,0.000,
-143.000,0.000,
-142.000,0.000,
-141.000,0.000,
-140.000,0.000,
-139.000,0.000,
-138.000,0.000,
-137.000,0.000,
-136.000,0.000,
-135.000,0.000,
-134.000,0.000,
-133.000,0.000,
-132.000,0.000,
-131.000,0.000,
-130.000,0.000,
-129.000,0.000,
-128.000,0.000,
-127.000,0.000,
-126.000,0.000,
-125.000,0.000,
-124.000,0.000,
-123.000,0.000,
-122.000,0.000,
-121.000,0.000,
-120.000,0.000,
-119.000,0.000,
-118.000,0.000,
-117.000,0.000,
-116.000,0.000,
-115.000,0.000,
-114.000,0.000,
-113.000,0.000,
-112.000,0.000,
-111.000,0.000,
-110.000,0.000,
-109.000,0.000,
-108.000,0.000,
-107.000,0.000,
-106.000,0.000,
-105.000,0.000,
-104.000,0.000,
-103.000,0.000,
-102.000,0.000,
-101.000,0.000,
-100.000,0.000,
-99.000,0.000,
-98.000,0.000,
-97.000,0.000,
-96.000,0.000,
-95.000,0.000,
-94.000,0.000,
-93.000,0.000,
-92.000,0.000,
-91.000,0.000,
-90.000,0.000,
-89.000,0.000,
-88.000,0.000,
-87.000,0.000,
-86.000,0.000,
-85.000,0.000,
-84.000,0.000,
-83.000,0.000,
-82.000,0.000,
-81.000,0.000,
-80.000,0.000,
-79.000,0.000,
-78.000,0.000,
-77.000,0.000,
-76.000,0.000,
-75.000,0.000,
-74.000,0.000,
-73.000,0.000,
-72.000,0.000,
-71.000,0.000,
-70.000,0.000,
-69.000,0.000,
-68.000,0.000,
-67.000,0.000,
-66.000,0.000,
-65.000,0.000,
-64.000,0.000,
-63.000,0.000,
-62.000,0.000,
-61.000,0.000,
-60.000,0.000,
-59.000,0.000,
-58.000,0.000,
-57.000,0.000,
-56.000,0.000,
-55.000,0.000,
-54.000,0.000,
-53.000,0.000,
-52.000,0.000,
-51.000,0.000,
-50.000,0.000,
-49.000,0.000,
-48.000,0.000,
-47.000,0.000,
-46.000,0.000,
-45.000,0.000,
-44.000,0.000,
-43.000,0.000,
-42.000,0.000,
-41.000,0.000,
-40.000,0.000,
-39.000,0.000,
-38.000,0.000,
-37.000,0.000,
-36.000,0.000,
-35.000,0.000,
-34.000,0.000,
-33.000,0.000,
-32.000,0.000,
-31.000,0.000,
-30.000,0.000,
-29.000,0.000,
-28.000,0.000,
-27.000,0.000,
-26.000,0.000,
-25.000,0.000,
-24.000,0.000,
-23.000,0.000,
-22.000,0.000,
-21.000,0.000,
-20.000,0.000,
-19.000,0.000,
-18.000,0.000,
-17.000,0.000,
-16.000,0.000,
-15.000,0.000,
-14.000,0.000,
-13.000,0.000,
-12.000,0.000,
-11.000,0.000,
-10.000,0.000,
-9.000,0.000,
-8.000,0.000,
-7.000,0.000,
-6.000,0.000,
-5.000,0.000,
-4.000,0.000,
-3.000,0.000,
-2.000,0.000,
-1.000,0.000,
0.000,0.000,
1.000,0.000,
2.000,0.000,
3.000,0.000,
4.000,0.000,
5.000,0.000,
6.000,0.000,
7.000,0.000,
8.000,0.000,
9.000,0.000,
10.000,0.000,
11.000,0.000,
12.000,0.000,
13.000,0.000,
14.000,0.000,
15.000,0.000,
16.000,0.000,
17.000,0.000,
18.000,0.000,
19.000,0.000,
20.000,0.000,
21.000,0.000,
22.000,0.000,
23.000,0.000,
24.000,0.000,
25.000,0.000,
26.000,0.000,
27.000,0.000,
28.000,0.000,
29.000,0.000,
30.000,0.000,
31.000,0.000,
32.000,0.000,
33.000,0.000,
34.000,0.000,
35.000,0.000,
36.000,0.000,
37.000,0.000,
38.000,0.000,
39.000,0.000,
40.000,0.000,
41.000,0.000,
42.000,0.000,
43.000,0.000,
44.000,0.000,
45.000,0.000,
46.000,0.000,
47.000,0.000,
48.000,0.000,
49.000,0.000,
50.000,0.000,
51.000,0.000,
52.000,0.000,
53.000,0.000,
54.000,0.000,
55.000,0.000,
56.000,0.000,
57.000,0.000,
58.000,0.000,
59.000,0.000,
60.000,0.000,
61.000,0.000,
62.000,0.000,
63.000,0.000,
64.000,0.000,
65.000,0.000,
66.000,0.000,
67.000,0.000,
68.000,0.000,
69.000,0.000,
70.000,0.000,
71.000,0.000,
72.000,0.000,
73.000,0.000,
74.000,0.000,
75.000,0.000,
76.000,0.000,
77.000,0.000,
78.000,0.000,
79.000,0.000,
80.000,0.000,
81.000,0.000,
82.000,0.000,
83.000,0.000,
84.000,0.000,
85.000,0.000,
86.000,0.000,
87.000,0.000,
88.000,0.000,
89.000,0.000,
90.000,0.000,
91.000,0.000,
92.000,0.000,
93.000,0.000,
94.000,0.000,
95.000,0.000,
96.000,0.000,
97.000,0.000,
98.000,0.000,
99.000,0.000,
100.000,0.000,
101.000,0.000,
102.000,0.000,
103.000,0.000,
104.000,0.000,
105.000,0.000,
106.000,0.000,
107.000,0.000,
108.000,0.000,
109.000,0.000,
110.000,0.000,
111.000,0.000,
112.000,0.000,
113.000,0.000,
114.000,0.000,
115.000,0.000,
116.000,0.000,
117.000,0.000,
118.000,0.000,
119.000,0.000,
120.000,0.000,
121.000,0.000,
122.000,0.000,
123.000,0.000,
124.000,0.000,
125.000,0.000,
126.000,0.000,
127.000,0.000,
128.000,0.000,
129.000,0.000,
130.000,0.000,
131.000,0.000,
132.000,0.000,
133.000,0.000,
134.000,0.000,
135.000,0.000,
136.000,0.000,
137.000,0.000,
138.000,0.000,
139.000,0.000,
140.000,0.000,
141.000,0.000,
142.000,0.000,
143.000,0.000,
144.000,0.000,
145.000,0.000,
146.000,0.000,
147.000,0.000,
148.000,0.000,
149.000,0.000,
150.000,0.000,
151.000,0.000,
152.000,0.000,
153.000,0.000,
154.000,0.000,
155.000,0.000,
156.000,0.000,
157.000,0.000,
158.000,0.000,
159.000,0.000,
160.000,0.000,
161.000,0.000,
162.000,0.000,
163.000,0.000,
164.000,0.000,
165.000,0.000,
166.000,0.000,
167.000,0.000,
168.000,0.000,
169.000,0.000,
170.000,0.000,
171.000,0.000,
172.000,0.000,
173.000,0.000,
174.000,0.000,
175.000,0.000,
176.000,0.000,
177.000,0.000,
178.000,0.000,
179.000,0.000,
PATCUT:,EL
POLARI:,V/V
NUPOIN:,360
FSTLST:,-180,179
-180.000,0.000,
-179.000,0.000,
-178.000,0.000,
-177.000,-0.100,
-176.000,-0.100,
-175.000,-0.300,
-174.000,-0.400,
-173.000,-0.600,
-172.000,-0.800,
-171.000,-1.000,
-170.000,-1.300,
-169.000,-1.600,
-168.000,-1.900,
-167.000,-2.200,
-166.000,-2.700,
-165.000,-3.100,
-164.000,-3.500,
-163.000,-4.000,
-162.000,-4.500,
-161.000,-5.000,
-160.000,-5.600,
-159.000,-6.300,
-158.000,-6.800,
-157.000,-7.500,
-156.000,-8.300,
-155.000,-9.100,
-154.000,-9.800,
-153.000,-10.600,
-152.000,-11.700,
-151.000,-13.000,
-150.000,-14.600,
-149.000,-16.900,
-148.000,-19.000,
-147.000,-20.400,
-146.000,-21.600,
-145.000,-22.100,
-144.000,-22.700,
-143.000,-21.800,
-142.000,-21.100,
-141.000,-20.400,
-140.000,-19.800,
-139.000,-19.100,
-138.000,-18.600,
-137.000,-18.100,
-136.000,-17.600,
-135.000,-17.100,
-134.000,-16.600,
-133.000,-16.200,
-132.000,-15.900,
-131.000,-15.700,
-130.000,-15.400,
-129.000,-15.200,
-128.000,-15.200,
-127.000,-15.100,
-126.000,-14.900,
-125.000,-14.900,
-124.000,-14.900,
-123.000,-14.900,
-122.000,-15.100,
-121.000,-15.200,
-120.000,-15.300,
-119.000,-15.400,
-118.000,-15.600,
-117.000,-15.800,
-116.000,-16.100,
-115.000,-16.200,
-114.000,-16.500,
-113.000,-16.800,
-112.000,-17.100,
-111.000,-17.400,
-110.000,-17.700,
-109.000,-18.100,
-108.000,-18.400,
-107.000,-19.000,
-106.000,-19.500,
-105.000,-20.200,
-104.000,-20.900,
-103.000,-21.600,
-102.000,-22.400,
-101.000,-23.600,
-100.000,-25.800,
-99.000,-28.700,
-98.000,-29.900,
-97.000,-31.400,
-96.000,-32.200,
-95.000,-33.100,
-94.000,-34.100,
-93.000,-35.300,
-92.000,-36.600,
-91.000,-36.600,
-90.000,-36.600,
-89.000,-35.300,
-88.000,-36.600,
-87.000,-36.600,
-86.000,-36.600,
-85.000,-35.300,
-84.000,-34.100,
-83.000,-33.100,
-82.000,-32.200,
-81.000,-31.400,
-80.000,-29.900,
-79.000,-28.700,
-78.000,-25.800,
-77.000,-23.600,
-76.000,-22.400,
-75.000,-21.600,
-74.000,-20.900,
-73.000,-20.200,
-72.000,-19.500,
-71.000,-19.000,
-70.000,-18.400,
-69.000,-18.100,
-68.000,-17.700,
-67.000,-17.400,
-66.000,-17.100,
-65.000,-16.800,
-64.000,-16.500,
-63.000,-16.200,
-62.000,-16.100,
-61.000,-15.800,
-60.000,-15.600,
-59.000,-15.400,
-58.000,-15.300,
-57.000,-15.200,
-56.000,-15.100,
-55.000,-14.900,
-54.000,-14.900,
-53.000,-14.900,
-52.000,-14.900,
-51.000,-15.100,
-50.000,-15.200,
-49.000,-15.200,
-48.000,-15.400,
-47.000,-15.700,
-46.000,-15.900,
-45.000,-16.200,
-44.000,-16.600,
-43.000,-17.100,
-42.000,-17.600,
-41.000,-18.100,
-40.000,-18.600,
-39.000,-19.100,
-38.000,-19.800,
-37.000,-20.400,
-36.000,-21.100,
-35.000,-21.800,
-34.000,-22.700,
-33.000,-22.100,
-32.000,-21.600,
-31.000,-20.400,
-30.000,-19.000,
-29.000,-16.900,
-28.000,-14.600,
-27.000,-13.000,
-26.000,-11.700,
-25.000,-10.600,
-24.000,-9.800,
-23.000,-9.100,
-22.000,-8.300,
-21.000,-7.500,
-20.000,-6.800,
-19.000,-6.300,
-18.000,-5.600,
-17.000,-5.000,
-16.000,-4.500,
-15.000,-4.000,
-14.000,-3.500,
-13.000,-3.100,
-12.000,-2.700,
-11.000,-2.200,
-10.000,-1.900,
-9.000,-1.600,
-8.000,-1.300,
-7.000,-1.000,
-6.000,-0.800,
-5.000,-0.600,
-4.000,-0.400,
-3.000,-0.300,
-2.000,-0.100,
-1.000,-0.100,
0.000,0.000,
1.000,0.000,
2.000,0.000,
3.000,0.000,
4.000,-0.100,
5.000,-0.100,
6.000,-0.200,
7.000,-0.400,
8.000,-0.500,
9.000,-0.700,
10.000,-0.800,
11.000,-1.000,
12.000,-1.300,
13.000,-1.500,
14.000,-1.800,
15.000,-2.200,
16.000,-2.600,
17.000,-2.900,
18.000,-3.300,
19.000,-3.700,
20.000,-4.100,
21.000,-4.500,
22.000,-5.000,
23.000,-5.500,
24.000,-6.000,
25.000,-6.600,
26.000,-7.100,
27.000,-7.500,
28.000,-8.200,
29.000,-8.800,
30.000,-9.300,
31.000,-10.000,
32.000,-10.500,
33.000,-11.100,
34.000,-11.500,
35.000,-12.000,
36.000,-12.600,
37.000,-13.100,
38.000,-13.800,
39.000,-14.500,
40.000,-15.400,
41.000,-13.000,
42.000,-12.300,
43.000,-11.800,
44.000,-11.500,
45.000,-11.000,
46.000,-10.800,
47.000,-10.500,
48.000,-10.300,
49.000,-10.100,
50.000,-10.000,
51.000,-9.900,
52.000,-9.800,
53.000,-9.700,
54.000,-9.700,
55.000,-9.700,
56.000,-9.600,
57.000,-9.700,
58.000,-9.700,
59.000,-9.700,
60.000,-9.800,
61.000,-9.900,
62.000,-9.900,
63.000,-10.100,
64.000,-10.200,
65.000,-10.300,
66.000,-10.600,
67.000,-10.800,
68.000,-11.000,
69.000,-11.200,
70.000,-11.500,
71.000,-11.700,
72.000,-12.000,
73.000,-12.400,
74.000,-12.800,
75.000,-13.100,
76.000,-13.500,
77.000,-14.200,
78.000,-14.600,
79.000,-15.100,
80.000,-15.600,
81.000,-16.200,
82.000,-16.900,
83.000,-17.700,
84.000,-18.600,
85.000,-19.500,
86.000,-20.600,
87.000,-21.800,
88.000,-23.300,
89.000,-25.000,
90.000,-27.100,
91.000,-30.000,
92.000,-27.100,
93.000,-25.000,
94.000,-23.300,
95.000,-21.800,
96.000,-20.600,
97.000,-19.500,
98.000,-18.600,
99.000,-17.700,
100.000,-16.900,
101.000,-16.200,
102.000,-15.600,
103.000,-15.100,
104.000,-14.600,
105.000,-14.200,
106.000,-13.500,
107.000,-13.100,
108.000,-12.800,
109.000,-12.400,
110.000,-12.000,
111.000,-11.700,
112.000,-11.500,
113.000,-11.200,
114.000,-11.000,
115.000,-10.800,
116.000,-10.600,
117.000,-10.300,
118.000,-10.200,
119.000,-10.100,
120.000,-9.900,
121.000,-9.900,
122.000,-9.800,
123.000,-9.700,
124.000,-9.700,
125.000,-9.700,
126.000,-9.600,
127.000,-9.700,
128.000,-9.700,
129.000,-9.700,
130.000,-9.800,
131.000,-9.900,
132.000,-10.000,
133.000,-10.100,
134.000,-10.300,
135.000,-10.500,
136.000,-10.800,
137.000,-11.000,
138.000,-11.500,
139.000,-11.800,
140.000,-12.300,
141.000,-13.000,
142.000,-15.400,
143.000,-14.500,
144.000,-13.800,
145.000,-13.100,
146.000,-12.600,
147.000,-12.000,
148.000,-11.500,
149.000,-11.100,
150.000,-10.500,
151.000,-10.000,
152.000,-9.300,
153.000,-8.800,
154.000,-8.200,
155.000,-7.500,
156.000,-7.100,
157.000,-6.600,
158.000,-6.000,
159.000,-5.500,
160.000,-5.000,
161.000,-4.500,
162.000,-4.100,
163.000,-3.700,
164.000,-3.300,
165.000,-2.900,
166.000,-2.600,
167.000,-2.200,
168.000,-1.800,
169.000,-1.500,
170.000,-1.300,
171.000,-1.000,
172.000,-0.800,
173.000,-0.700,
174.000,-0.500,
175.000,-0.400,
176.000,-0.200,
177.000,-0.100,
178.000,-0.100,
179.000,0.000,
ENDFIL:,EOF
