REVNUM:,NSMA WG16.99.050
REVDAT:,19990520
ANTMAN:,KATHREIN
MODNUM:,721388
DESCR1:,Omni
DESCR2:,5 dBd - Vertical polarization
DESCR3:,360 degree
DTDATA:,19930113
LOWFRQ:,440
HGHFRQ:,470
GUNITS:,DBD/DBR
MDGAIN:,5.0
AZWIDT:,360
ELWIDT:,18.0
ELTILT:,0.0
ANTLEN:,2.02
ANTWID:,0.05
ANTDEP:,0.05
ANTWGT:,1.6
PATTYP:,TYPICAL
NOFREQ:,1
PATFRE:,450.0
NUMCUT:,2
PATCUT:,AZ
POLARI:,V/V
NUPOIN:,360
FSTLST:,-180,179
-180.000,0.000,
-179.000,0.000,
-178.000,0.000,
-177.000,0.000,
-176.000,0.000,
-175.000,0.000,
-174.000,0.000,
-173.000,0.000,
-172.000,0.000,
-171.000,0.000,
-170.000,0.000,
-169.000,0.000,
-168.000,0.000,
-167.000,0.000,
-166.000,0.000,
-165.000,0.000,
-164.000,0.000,
-163.000,0.000,
-162.000,0.000,
-161.000,0.000,
-160.000,0.000,
-159.000,0.000,
-158.000,0.000,
-157.000,0.000,
-156.000,0.000,
-155.000,0.000,
-154.000,0.000,
-153.000,0.000,
-152.000,0.000,
-151.000,0.000,
-150.000,0.000,
-149.000,0.000,
-148.000,0.000,
-147.000,0.000,
-146.000,0.000,
-145.000,0.000,
-144.000,0.000,
-143.000,0.000,
-142.000,0.000,
-141.000,0.000,
-140.000,0.000,
-139.000,0.000,
-138.000,0.000,
-137.000,0.000,
-136.000,0.000,
-135.000,0.000,
-134.000,0.000,
-133.000,0.000,
-132.000,0.000,
-131.000,0.000,
-130.000,0.000,
-129.000,0.000,
-128.000,0.000,
-127.000,0.000,
-126.000,0.000,
-125.000,0.000,
-124.000,0.000,
-123.000,0.000,
-122.000,0.000,
-121.000,0.000,
-120.000,0.000,
-119.000,0.000,
-118.000,0.000,
-117.000,0.000,
-116.000,0.000,
-115.000,0.000,
-114.000,0.000,
-113.000,0.000,
-112.000,0.000,
-111.000,0.000,
-110.000,0.000,
-109.000,0.000,
-108.000,0.000,
-107.000,0.000,
-106.000,0.000,
-105.000,0.000,
-104.000,0.000,
-103.000,0.000,
-102.000,0.000,
-101.000,0.000,
-100.000,0.000,
-99.000,0.000,
-98.000,0.000,
-97.000,0.000,
-96.000,0.000,
-95.000,0.000,
-94.000,0.000,
-93.000,0.000,
-92.000,0.000,
-91.000,0.000,
-90.000,0.000,
-89.000,0.000,
-88.000,0.000,
-87.000,0.000,
-86.000,0.000,
-85.000,0.000,
-84.000,0.000,
-83.000,0.000,
-82.000,0.000,
-81.000,0.000,
-80.000,0.000,
-79.000,0.000,
-78.000,0.000,
-77.000,0.000,
-76.000,0.000,
-75.000,0.000,
-74.000,0.000,
-73.000,0.000,
-72.000,0.000,
-71.000,0.000,
-70.000,0.000,
-69.000,0.000,
-68.000,0.000,
-67.000,0.000,
-66.000,0.000,
-65.000,0.000,
-64.000,0.000,
-63.000,0.000,
-62.000,0.000,
-61.000,0.000,
-60.000,0.000,
-59.000,0.000,
-58.000,0.000,
-57.000,0.000,
-56.000,0.000,
-55.000,0.000,
-54.000,0.000,
-53.000,0.000,
-52.000,0.000,
-51.000,0.000,
-50.000,0.000,
-49.000,0.000,
-48.000,0.000,
-47.000,0.000,
-46.000,0.000,
-45.000,0.000,
-44.000,0.000,
-43.000,0.000,
-42.000,0.000,
-41.000,0.000,
-40.000,0.000,
-39.000,0.000,
-38.000,0.000,
-37.000,0.000,
-36.000,0.000,
-35.000,0.000,
-34.000,0.000,
-33.000,0.000,
-32.000,0.000,
-31.000,0.000,
-30.000,0.000,
-29.000,0.000,
-28.000,0.000,
-27.000,0.000,
-26.000,0.000,
-25.000,0.000,
-24.000,0.000,
-23.000,0.000,
-22.000,0.000,
-21.000,0.000,
-20.000,0.000,
-19.000,0.000,
-18.000,0.000,
-17.000,0.000,
-16.000,0.000,
-15.000,0.000,
-14.000,0.000,
-13.000,0.000,
-12.000,0.000,
-11.000,0.000,
-10.000,0.000,
-9.000,0.000,
-8.000,0.000,
-7.000,0.000,
-6.000,0.000,
-5.000,0.000,
-4.000,0.000,
-3.000,0.000,
-2.000,0.000,
-1.000,0.000,
0.000,0.000,
1.000,0.000,
2.000,0.000,
3.000,0.000,
4.000,0.000,
5.000,0.000,
6.000,0.000,
7.000,0.000,
8.000,0.000,
9.000,0.000,
10.000,0.000,
11.000,0.000,
12.000,0.000,
13.000,0.000,
14.000,0.000,
15.000,0.000,
16.000,0.000,
17.000,0.000,
18.000,0.000,
19.000,0.000,
20.000,0.000,
21.000,0.000,
22.000,0.000,
23.000,0.000,
24.000,0.000,
25.000,0.000,
26.000,0.000,
27.000,0.000,
28.000,0.000,
29.000,0.000,
30.000,0.000,
31.000,0.000,
32.000,0.000,
33.000,0.000,
34.000,0.000,
35.000,0.000,
36.000,0.000,
37.000,0.000,
38.000,0.000,
39.000,0.000,
40.000,0.000,
41.000,0.000,
42.000,0.000,
43.000,0.000,
44.000,0.000,
45.000,0.000,
46.000,0.000,
47.000,0.000,
48.000,0.000,
49.000,0.000,
50.000,0.000,
51.000,0.000,
52.000,0.000,
53.000,0.000,
54.000,0.000,
55.000,0.000,
56.000,0.000,
57.000,0.000,
58.000,0.000,
59.000,0.000,
60.000,0.000,
61.000,0.000,
62.000,0.000,
63.000,0.000,
64.000,0.000,
65.000,0.000,
66.000,0.000,
67.000,0.000,
68.000,0.000,
69.000,0.000,
70.000,0.000,
71.000,0.000,
72.000,0.000,
73.000,0.000,
74.000,0.000,
75.000,0.000,
76.000,0.000,
77.000,0.000,
78.000,0.000,
79.000,0.000,
80.000,0.000,
81.000,0.000,
82.000,0.000,
83.000,0.000,
84.000,0.000,
85.000,0.000,
86.000,0.000,
87.000,0.000,
88.000,0.000,
89.000,0.000,
90.000,0.000,
91.000,0.000,
92.000,0.000,
93.000,0.000,
94.000,0.000,
95.000,0.000,
96.000,0.000,
97.000,0.000,
98.000,0.000,
99.000,0.000,
100.000,0.000,
101.000,0.000,
102.000,0.000,
103.000,0.000,
104.000,0.000,
105.000,0.000,
106.000,0.000,
107.000,0.000,
108.000,0.000,
109.000,0.000,
110.000,0.000,
111.000,0.000,
112.000,0.000,
113.000,0.000,
114.000,0.000,
115.000,0.000,
116.000,0.000,
117.000,0.000,
118.000,0.000,
119.000,0.000,
120.000,0.000,
121.000,0.000,
122.000,0.000,
123.000,0.000,
124.000,0.000,
125.000,0.000,
126.000,0.000,
127.000,0.000,
128.000,0.000,
129.000,0.000,
130.000,0.000,
131.000,0.000,
132.000,0.000,
133.000,0.000,
134.000,0.000,
135.000,0.000,
136.000,0.000,
137.000,0.000,
138.000,0.000,
139.000,0.000,
140.000,0.000,
141.000,0.000,
142.000,0.000,
143.000,0.000,
144.000,0.000,
145.000,0.000,
146.000,0.000,
147.000,0.000,
148.000,0.000,
149.000,0.000,
150.000,0.000,
151.000,0.000,
152.000,0.000,
153.000,0.000,
154.000,0.000,
155.000,0.000,
156.000,0.000,
157.000,0.000,
158.000,0.000,
159.000,0.000,
160.000,0.000,
161.000,0.000,
162.000,0.000,
163.000,0.000,
164.000,0.000,
165.000,0.000,
166.000,0.000,
167.000,0.000,
168.000,0.000,
169.000,0.000,
170.000,0.000,
171.000,0.000,
172.000,0.000,
173.000,0.000,
174.000,0.000,
175.000,0.000,
176.000,0.000,
177.000,0.000,
178.000,0.000,
179.000,0.000,
PATCUT:,EL
POLARI:,V/V
NUPOIN:,360
FSTLST:,-180,179
-180.000,0.000,
-179.000,0.000,
-178.000,-0.100,
-177.000,-0.300,
-176.000,-0.600,
-175.000,-0.900,
-174.000,-1.300,
-173.000,-1.800,
-172.000,-2.300,
-171.000,-2.900,
-170.000,-3.500,
-169.000,-4.100,
-168.000,-4.700,
-167.000,-5.400,
-166.000,-6.200,
-165.000,-7.000,
-164.000,-7.700,
-163.000,-8.300,
-162.000,-9.000,
-161.000,-9.700,
-160.000,-10.400,
-159.000,-10.900,
-158.000,-11.300,
-157.000,-11.800,
-156.000,-12.000,
-155.000,-12.100,
-154.000,-12.100,
-153.000,-12.000,
-152.000,-11.800,
-151.000,-11.600,
-150.000,-11.300,
-149.000,-10.700,
-148.000,-10.300,
-147.000,-10.200,
-146.000,-10.200,
-145.000,-10.400,
-144.000,-10.500,
-143.000,-10.900,
-142.000,-11.300,
-141.000,-11.800,
-140.000,-12.600,
-139.000,-13.600,
-138.000,-15.300,
-137.000,-17.600,
-136.000,-20.700,
-135.000,-25.400,
-134.000,-32.300,
-133.000,-30.000,
-132.000,-28.200,
-131.000,-26.700,
-130.000,-25.400,
-129.000,-24.300,
-128.000,-23.300,
-127.000,-22.400,
-126.000,-21.600,
-125.000,-20.200,
-124.000,-19.000,
-123.000,-17.900,
-122.000,-17.400,
-121.000,-17.000,
-120.000,-16.600,
-119.000,-16.100,
-118.000,-15.700,
-117.000,-15.600,
-116.000,-15.500,
-115.000,-15.500,
-114.000,-15.600,
-113.000,-15.900,
-112.000,-16.100,
-111.000,-16.400,
-110.000,-16.800,
-109.000,-17.300,
-108.000,-17.800,
-107.000,-18.300,
-106.000,-18.800,
-105.000,-19.800,
-104.000,-20.900,
-103.000,-22.100,
-102.000,-23.600,
-101.000,-25.400,
-100.000,-27.600,
-99.000,-30.700,
-98.000,-35.400,
-97.000,-34.200,
-96.000,-34.200,
-95.000,-34.200,
-94.000,-34.200,
-93.000,-34.200,
-92.000,-35.400,
-91.000,-36.700,
-90.000,-35.400,
-89.000,-36.700,
-88.000,-35.400,
-87.000,-34.200,
-86.000,-34.200,
-85.000,-34.200,
-84.000,-34.200,
-83.000,-34.200,
-82.000,-35.400,
-81.000,-30.700,
-80.000,-27.600,
-79.000,-25.400,
-78.000,-23.600,
-77.000,-22.100,
-76.000,-20.900,
-75.000,-19.800,
-74.000,-18.800,
-73.000,-18.300,
-72.000,-17.800,
-71.000,-17.300,
-70.000,-16.800,
-69.000,-16.400,
-68.000,-16.100,
-67.000,-15.900,
-66.000,-15.600,
-65.000,-15.500,
-64.000,-15.500,
-63.000,-15.600,
-62.000,-15.700,
-61.000,-16.100,
-60.000,-16.600,
-59.000,-17.000,
-58.000,-17.400,
-57.000,-17.900,
-56.000,-19.000,
-55.000,-20.200,
-54.000,-21.600,
-53.000,-22.400,
-52.000,-23.300,
-51.000,-24.300,
-50.000,-25.400,
-49.000,-26.700,
-48.000,-28.200,
-47.000,-30.000,
-46.000,-32.300,
-45.000,-25.400,
-44.000,-20.700,
-43.000,-17.600,
-42.000,-15.300,
-41.000,-13.600,
-40.000,-12.600,
-39.000,-11.800,
-38.000,-11.300,
-37.000,-10.900,
-36.000,-10.500,
-35.000,-10.400,
-34.000,-10.200,
-33.000,-10.200,
-32.000,-10.300,
-31.000,-10.700,
-30.000,-11.300,
-29.000,-11.600,
-28.000,-11.800,
-27.000,-12.000,
-26.000,-12.100,
-25.000,-12.100,
-24.000,-12.000,
-23.000,-11.800,
-22.000,-11.300,
-21.000,-10.900,
-20.000,-10.400,
-19.000,-9.700,
-18.000,-9.000,
-17.000,-8.300,
-16.000,-7.700,
-15.000,-7.000,
-14.000,-6.200,
-13.000,-5.400,
-12.000,-4.700,
-11.000,-4.100,
-10.000,-3.500,
-9.000,-2.900,
-8.000,-2.300,
-7.000,-1.800,
-6.000,-1.300,
-5.000,-0.900,
-4.000,-0.600,
-3.000,-0.300,
-2.000,-0.100,
-1.000,0.000,
0.000,0.000,
1.000,0.000,
2.000,-0.100,
3.000,-0.200,
4.000,-0.400,
5.000,-0.700,
6.000,-1.000,
7.000,-1.400,
8.000,-1.900,
9.000,-2.500,
10.000,-3.200,
11.000,-3.900,
12.000,-4.500,
13.000,-5.500,
14.000,-6.600,
15.000,-7.800,
16.000,-9.100,
17.000,-11.600,
18.000,-13.400,
19.000,-15.300,
20.000,-17.900,
21.000,-20.000,
22.000,-22.700,
23.000,-18.100,
24.000,-15.500,
25.000,-13.500,
26.000,-12.300,
27.000,-11.700,
28.000,-11.100,
29.000,-10.600,
30.000,-10.100,
31.000,-9.800,
32.000,-9.600,
33.000,-9.500,
34.000,-9.400,
35.000,-9.400,
36.000,-9.500,
37.000,-9.600,
38.000,-9.800,
39.000,-10.200,
40.000,-10.500,
41.000,-10.900,
42.000,-11.300,
43.000,-11.700,
44.000,-12.100,
45.000,-12.400,
46.000,-12.800,
47.000,-13.100,
48.000,-13.200,
49.000,-13.200,
50.000,-13.200,
51.000,-13.000,
52.000,-12.500,
53.000,-12.100,
54.000,-11.800,
55.000,-11.500,
56.000,-11.300,
57.000,-11.000,
58.000,-10.800,
59.000,-10.700,
60.000,-10.600,
61.000,-10.600,
62.000,-10.600,
63.000,-10.600,
64.000,-10.700,
65.000,-10.700,
66.000,-10.800,
67.000,-11.000,
68.000,-11.100,
69.000,-11.300,
70.000,-11.400,
71.000,-11.500,
72.000,-11.800,
73.000,-12.200,
74.000,-12.500,
75.000,-13.000,
76.000,-13.500,
77.000,-14.500,
78.000,-15.700,
79.000,-16.600,
80.000,-17.400,
81.000,-18.400,
82.000,-19.200,
83.000,-20.000,
84.000,-20.900,
85.000,-21.900,
86.000,-23.000,
87.000,-24.300,
88.000,-25.800,
89.000,-27.600,
90.000,-30.700,
91.000,-27.600,
92.000,-25.800,
93.000,-24.300,
94.000,-23.000,
95.000,-21.900,
96.000,-20.900,
97.000,-20.000,
98.000,-19.200,
99.000,-18.400,
100.000,-17.400,
101.000,-16.600,
102.000,-15.700,
103.000,-14.500,
104.000,-13.500,
105.000,-13.000,
106.000,-12.500,
107.000,-12.200,
108.000,-11.800,
109.000,-11.500,
110.000,-11.400,
111.000,-11.300,
112.000,-11.100,
113.000,-11.000,
114.000,-10.800,
115.000,-10.700,
116.000,-10.700,
117.000,-10.600,
118.000,-10.600,
119.000,-10.600,
120.000,-10.600,
121.000,-10.700,
122.000,-10.800,
123.000,-11.000,
124.000,-11.300,
125.000,-11.500,
126.000,-11.800,
127.000,-12.100,
128.000,-12.500,
129.000,-13.000,
130.000,-13.200,
131.000,-13.200,
132.000,-13.200,
133.000,-13.100,
134.000,-12.800,
135.000,-12.400,
136.000,-12.100,
137.000,-11.700,
138.000,-11.300,
139.000,-10.900,
140.000,-10.500,
141.000,-10.200,
142.000,-9.800,
143.000,-9.600,
144.000,-9.500,
145.000,-9.400,
146.000,-9.400,
147.000,-9.500,
148.000,-9.600,
149.000,-9.800,
150.000,-10.100,
151.000,-10.600,
152.000,-11.100,
153.000,-11.700,
154.000,-12.300,
155.000,-13.500,
156.000,-15.500,
157.000,-18.100,
158.000,-22.700,
159.000,-20.000,
160.000,-17.900,
161.000,-15.300,
162.000,-13.400,
163.000,-11.600,
164.000,-9.100,
165.000,-7.800,
166.000,-6.600,
167.000,-5.500,
168.000,-4.500,
169.000,-3.900,
170.000,-3.200,
171.000,-2.500,
172.000,-1.900,
173.000,-1.400,
174.000,-1.000,
175.000,-0.700,
176.000,-0.400,
177.000,-0.200,
178.000,-0.100,
179.000,0.000,
ENDFIL:,EOF
