REVNUM:,NSMA WG16.99.050
REVDAT:,19990520
ANTMAN:,KATHREIN
MODNUM:,728685
DESCR1:,Panel
DESCR2:,12.5 dBd - Vertical polarization
DESCR3:,36 degree
DTDATA:,19921109
LOWFRQ:,870
HGHFRQ:,960
GUNITS:,DBD/DBR
MDGAIN:,12.5
AZWIDT:,36.0
ELWIDT:,26.0
ELTILT:,0.0
ANTLEN:,0.65
ANTWID:,0.59
ANTDEP:,0.41
ANTWGT:,14.5
PATTYP:,TYPICAL
NOFREQ:,1
PATFRE:,947.5
NUMCUT:,2
PATCUT:,AZ
POLARI:,V/V
NUPOIN:,360
FSTLST:,-180,179
-180.000,-28.300,
-179.000,-28.300,
-178.000,-28.300,
-177.000,-28.300,
-176.000,-28.400,
-175.000,-28.400,
-174.000,-28.500,
-173.000,-28.600,
-172.000,-28.700,
-171.000,-28.800,
-170.000,-29.000,
-169.000,-29.100,
-168.000,-29.300,
-167.000,-29.400,
-166.000,-29.600,
-165.000,-29.700,
-164.000,-29.900,
-163.000,-30.000,
-162.000,-30.200,
-161.000,-30.400,
-160.000,-30.500,
-159.000,-30.700,
-158.000,-30.800,
-157.000,-31.000,
-156.000,-31.200,
-155.000,-31.300,
-154.000,-31.500,
-153.000,-31.800,
-152.000,-31.900,
-151.000,-32.100,
-150.000,-32.400,
-149.000,-32.600,
-148.000,-32.800,
-147.000,-33.000,
-146.000,-33.200,
-145.000,-33.400,
-144.000,-33.600,
-143.000,-33.900,
-142.000,-34.100,
-141.000,-34.400,
-140.000,-34.600,
-139.000,-35.100,
-138.000,-35.500,
-137.000,-36.100,
-136.000,-36.700,
-135.000,-37.400,
-134.000,-38.500,
-133.000,-39.600,
-132.000,-41.000,
-131.000,-42.600,
-130.000,-44.400,
-129.000,-46.800,
-128.000,-49.300,
-127.000,-49.000,
-126.000,-46.100,
-125.000,-43.200,
-124.000,-40.600,
-123.000,-38.600,
-122.000,-36.700,
-121.000,-35.200,
-120.000,-33.900,
-119.000,-32.900,
-118.000,-32.000,
-117.000,-31.100,
-116.000,-30.200,
-115.000,-29.600,
-114.000,-28.900,
-113.000,-28.300,
-112.000,-27.800,
-111.000,-27.300,
-110.000,-26.900,
-109.000,-26.400,
-108.000,-26.000,
-107.000,-25.600,
-106.000,-25.300,
-105.000,-25.000,
-104.000,-24.700,
-103.000,-24.400,
-102.000,-24.200,
-101.000,-23.900,
-100.000,-23.700,
-99.000,-23.500,
-98.000,-23.300,
-97.000,-23.200,
-96.000,-23.000,
-95.000,-22.900,
-94.000,-22.800,
-93.000,-22.700,
-92.000,-22.600,
-91.000,-22.600,
-90.000,-22.500,
-89.000,-22.400,
-88.000,-22.400,
-87.000,-22.400,
-86.000,-22.300,
-85.000,-22.300,
-84.000,-22.300,
-83.000,-22.200,
-82.000,-22.200,
-81.000,-22.100,
-80.000,-22.000,
-79.000,-21.900,
-78.000,-21.800,
-77.000,-21.700,
-76.000,-21.500,
-75.000,-21.300,
-74.000,-21.100,
-73.000,-20.900,
-72.000,-20.600,
-71.000,-20.400,
-70.000,-20.100,
-69.000,-19.900,
-68.000,-19.600,
-67.000,-19.400,
-66.000,-19.100,
-65.000,-18.800,
-64.000,-18.600,
-63.000,-18.400,
-62.000,-18.200,
-61.000,-18.000,
-60.000,-17.800,
-59.000,-17.700,
-58.000,-17.300,
-57.000,-17.100,
-56.000,-17.000,
-55.000,-16.900,
-54.000,-16.800,
-53.000,-16.600,
-52.000,-16.500,
-51.000,-16.400,
-50.000,-16.300,
-49.000,-16.100,
-48.000,-16.000,
-47.000,-15.800,
-46.000,-15.600,
-45.000,-15.300,
-44.000,-15.000,
-43.000,-14.700,
-42.000,-14.400,
-41.000,-13.900,
-40.000,-13.500,
-39.000,-13.100,
-38.000,-12.600,
-37.000,-12.000,
-36.000,-11.500,
-35.000,-11.000,
-34.000,-10.400,
-33.000,-9.800,
-32.000,-9.300,
-31.000,-8.800,
-30.000,-8.200,
-29.000,-7.700,
-28.000,-7.200,
-27.000,-6.700,
-26.000,-6.200,
-25.000,-5.700,
-24.000,-5.300,
-23.000,-4.900,
-22.000,-4.400,
-21.000,-4.000,
-20.000,-3.700,
-19.000,-3.300,
-18.000,-2.900,
-17.000,-2.600,
-16.000,-2.300,
-15.000,-2.000,
-14.000,-1.700,
-13.000,-1.500,
-12.000,-1.200,
-11.000,-1.000,
-10.000,-0.900,
-9.000,-0.700,
-8.000,-0.500,
-7.000,-0.400,
-6.000,-0.300,
-5.000,-0.200,
-4.000,-0.100,
-3.000,-0.100,
-2.000,0.000,
-1.000,0.000,
0.000,0.000,
1.000,0.000,
2.000,0.000,
3.000,-0.100,
4.000,-0.100,
5.000,-0.200,
6.000,-0.300,
7.000,-0.500,
8.000,-0.600,
9.000,-0.800,
10.000,-1.000,
11.000,-1.200,
12.000,-1.400,
13.000,-1.600,
14.000,-1.900,
15.000,-2.100,
16.000,-2.400,
17.000,-2.800,
18.000,-3.100,
19.000,-3.500,
20.000,-3.800,
21.000,-4.200,
22.000,-4.600,
23.000,-5.000,
24.000,-5.400,
25.000,-5.900,
26.000,-6.300,
27.000,-6.900,
28.000,-7.400,
29.000,-7.900,
30.000,-8.500,
31.000,-9.000,
32.000,-9.600,
33.000,-10.200,
34.000,-10.700,
35.000,-11.200,
36.000,-11.800,
37.000,-12.400,
38.000,-12.900,
39.000,-13.400,
40.000,-13.900,
41.000,-14.300,
42.000,-14.800,
43.000,-15.100,
44.000,-15.500,
45.000,-15.800,
46.000,-16.100,
47.000,-16.300,
48.000,-16.500,
49.000,-16.700,
50.000,-16.800,
51.000,-17.000,
52.000,-17.100,
53.000,-17.200,
54.000,-17.400,
55.000,-17.700,
56.000,-17.900,
57.000,-18.000,
58.000,-18.100,
59.000,-18.300,
60.000,-18.500,
61.000,-18.700,
62.000,-18.900,
63.000,-19.100,
64.000,-19.300,
65.000,-19.500,
66.000,-19.800,
67.000,-20.000,
68.000,-20.300,
69.000,-20.500,
70.000,-20.800,
71.000,-21.000,
72.000,-21.300,
73.000,-21.500,
74.000,-21.800,
75.000,-22.000,
76.000,-22.200,
77.000,-22.300,
78.000,-22.500,
79.000,-22.600,
80.000,-22.700,
81.000,-22.800,
82.000,-22.900,
83.000,-22.900,
84.000,-23.000,
85.000,-23.000,
86.000,-23.000,
87.000,-23.000,
88.000,-23.000,
89.000,-23.000,
90.000,-23.000,
91.000,-23.100,
92.000,-23.100,
93.000,-23.100,
94.000,-23.100,
95.000,-23.200,
96.000,-23.200,
97.000,-23.300,
98.000,-23.400,
99.000,-23.500,
100.000,-23.600,
101.000,-23.700,
102.000,-23.900,
103.000,-24.000,
104.000,-24.300,
105.000,-24.500,
106.000,-24.800,
107.000,-25.100,
108.000,-25.500,
109.000,-25.900,
110.000,-26.400,
111.000,-26.800,
112.000,-27.300,
113.000,-27.900,
114.000,-28.600,
115.000,-29.300,
116.000,-30.100,
117.000,-31.000,
118.000,-32.000,
119.000,-33.000,
120.000,-34.300,
121.000,-35.800,
122.000,-37.500,
123.000,-39.500,
124.000,-41.800,
125.000,-44.600,
126.000,-47.400,
127.000,-48.900,
128.000,-48.100,
129.000,-45.900,
130.000,-43.900,
131.000,-42.200,
132.000,-40.800,
133.000,-39.700,
134.000,-38.900,
135.000,-38.100,
136.000,-37.200,
137.000,-36.600,
138.000,-36.100,
139.000,-35.700,
140.000,-35.300,
141.000,-35.000,
142.000,-34.700,
143.000,-34.300,
144.000,-34.000,
145.000,-33.700,
146.000,-33.400,
147.000,-33.200,
148.000,-32.900,
149.000,-32.700,
150.000,-32.500,
151.000,-32.300,
152.000,-32.000,
153.000,-31.800,
154.000,-31.600,
155.000,-31.400,
156.000,-31.200,
157.000,-31.000,
158.000,-30.800,
159.000,-30.600,
160.000,-30.400,
161.000,-30.300,
162.000,-30.100,
163.000,-30.000,
164.000,-29.800,
165.000,-29.700,
166.000,-29.500,
167.000,-29.400,
168.000,-29.200,
169.000,-29.100,
170.000,-28.900,
171.000,-28.800,
172.000,-28.700,
173.000,-28.600,
174.000,-28.500,
175.000,-28.400,
176.000,-28.400,
177.000,-28.300,
178.000,-28.300,
179.000,-28.300,
PATCUT:,EL
POLARI:,V/V
NUPOIN:,360
FSTLST:,-180,179
-180.000,-25.200,
-179.000,-25.200,
-178.000,-25.400,
-177.000,-25.600,
-176.000,-26.100,
-175.000,-26.600,
-174.000,-27.300,
-173.000,-28.100,
-172.000,-29.200,
-171.000,-30.400,
-170.000,-32.000,
-169.000,-34.000,
-168.000,-36.400,
-167.000,-40.000,
-166.000,-45.200,
-165.000,-48.100,
-164.000,-43.900,
-163.000,-40.000,
-162.000,-37.200,
-161.000,-35.500,
-160.000,-34.200,
-159.000,-33.200,
-158.000,-32.700,
-157.000,-32.300,
-156.000,-32.200,
-155.000,-32.300,
-154.000,-32.500,
-153.000,-33.000,
-152.000,-33.800,
-151.000,-34.700,
-150.000,-35.900,
-149.000,-37.500,
-148.000,-39.900,
-147.000,-43.100,
-146.000,-47.400,
-145.000,-54.200,
-144.000,-50.500,
-143.000,-44.900,
-142.000,-41.800,
-141.000,-39.400,
-140.000,-37.500,
-139.000,-36.300,
-138.000,-35.300,
-137.000,-34.600,
-136.000,-33.900,
-135.000,-33.600,
-134.000,-33.200,
-133.000,-33.000,
-132.000,-33.000,
-131.000,-33.000,
-130.000,-33.200,
-129.000,-33.500,
-128.000,-33.800,
-127.000,-34.300,
-126.000,-34.800,
-125.000,-35.400,
-124.000,-36.000,
-123.000,-36.600,
-122.000,-37.300,
-121.000,-37.900,
-120.000,-38.500,
-119.000,-38.600,
-118.000,-38.300,
-117.000,-37.500,
-116.000,-36.900,
-115.000,-36.100,
-114.000,-35.300,
-113.000,-34.500,
-112.000,-33.900,
-111.000,-33.200,
-110.000,-32.500,
-109.000,-31.900,
-108.000,-31.300,
-107.000,-30.700,
-106.000,-30.200,
-105.000,-29.700,
-104.000,-29.300,
-103.000,-28.900,
-102.000,-28.600,
-101.000,-28.400,
-100.000,-28.100,
-99.000,-28.000,
-98.000,-27.900,
-97.000,-27.900,
-96.000,-27.900,
-95.000,-28.000,
-94.000,-28.000,
-93.000,-28.200,
-92.000,-28.300,
-91.000,-28.500,
-90.000,-28.800,
-89.000,-29.000,
-88.000,-29.100,
-87.000,-29.300,
-86.000,-29.500,
-85.000,-29.600,
-84.000,-29.600,
-83.000,-29.600,
-82.000,-29.400,
-81.000,-29.100,
-80.000,-28.600,
-79.000,-28.000,
-78.000,-27.500,
-77.000,-26.700,
-76.000,-25.900,
-75.000,-25.200,
-74.000,-24.400,
-73.000,-23.800,
-72.000,-23.000,
-71.000,-22.300,
-70.000,-21.800,
-69.000,-21.200,
-68.000,-20.600,
-67.000,-20.000,
-66.000,-19.600,
-65.000,-19.100,
-64.000,-18.700,
-63.000,-18.300,
-62.000,-17.900,
-61.000,-17.500,
-60.000,-16.900,
-59.000,-16.500,
-58.000,-16.200,
-57.000,-15.800,
-56.000,-15.500,
-55.000,-15.200,
-54.000,-14.900,
-53.000,-14.500,
-52.000,-14.300,
-51.000,-14.000,
-50.000,-13.800,
-49.000,-13.600,
-48.000,-13.400,
-47.000,-13.200,
-46.000,-13.100,
-45.000,-13.100,
-44.000,-13.000,
-43.000,-13.100,
-42.000,-13.200,
-41.000,-13.300,
-40.000,-13.600,
-39.000,-13.900,
-38.000,-14.300,
-37.000,-14.900,
-36.000,-15.600,
-35.000,-16.500,
-34.000,-18.000,
-33.000,-19.500,
-32.000,-21.400,
-31.000,-24.100,
-30.000,-27.700,
-29.000,-29.200,
-28.000,-25.800,
-27.000,-21.800,
-26.000,-18.600,
-25.000,-16.000,
-24.000,-14.100,
-23.000,-12.400,
-22.000,-10.900,
-21.000,-9.700,
-20.000,-8.600,
-19.000,-7.500,
-18.000,-6.700,
-17.000,-5.800,
-16.000,-5.000,
-15.000,-4.300,
-14.000,-3.800,
-13.000,-3.200,
-12.000,-2.700,
-11.000,-2.200,
-10.000,-1.800,
-9.000,-1.500,
-8.000,-1.100,
-7.000,-0.900,
-6.000,-0.600,
-5.000,-0.500,
-4.000,-0.300,
-3.000,-0.200,
-2.000,-0.100,
-1.000,0.000,
0.000,0.000,
1.000,0.000,
2.000,-0.100,
3.000,-0.200,
4.000,-0.300,
5.000,-0.400,
6.000,-0.600,
7.000,-0.900,
8.000,-1.100,
9.000,-1.400,
10.000,-1.800,
11.000,-2.100,
12.000,-2.500,
13.000,-3.000,
14.000,-3.600,
15.000,-4.100,
16.000,-4.800,
17.000,-5.400,
18.000,-6.200,
19.000,-7.000,
20.000,-7.900,
21.000,-8.900,
22.000,-10.100,
23.000,-11.300,
24.000,-12.600,
25.000,-14.300,
26.000,-16.200,
27.000,-18.800,
28.000,-21.500,
29.000,-25.500,
30.000,-32.100,
31.000,-42.000,
32.000,-31.600,
33.000,-26.400,
34.000,-23.400,
35.000,-21.500,
36.000,-20.200,
37.000,-19.100,
38.000,-18.400,
39.000,-17.800,
40.000,-17.400,
41.000,-16.900,
42.000,-16.700,
43.000,-16.700,
44.000,-16.700,
45.000,-16.800,
46.000,-17.000,
47.000,-17.400,
48.000,-17.700,
49.000,-18.000,
50.000,-18.400,
51.000,-18.800,
52.000,-19.300,
53.000,-19.800,
54.000,-20.300,
55.000,-20.900,
56.000,-21.400,
57.000,-22.000,
58.000,-22.600,
59.000,-23.100,
60.000,-23.700,
61.000,-24.400,
62.000,-25.000,
63.000,-25.600,
64.000,-26.300,
65.000,-27.000,
66.000,-27.800,
67.000,-28.700,
68.000,-29.700,
69.000,-30.900,
70.000,-32.100,
71.000,-33.700,
72.000,-35.400,
73.000,-37.100,
74.000,-38.500,
75.000,-38.600,
76.000,-37.500,
77.000,-35.800,
78.000,-34.100,
79.000,-32.700,
80.000,-31.500,
81.000,-30.500,
82.000,-29.600,
83.000,-28.800,
84.000,-28.200,
85.000,-27.700,
86.000,-27.200,
87.000,-26.800,
88.000,-26.500,
89.000,-26.300,
90.000,-26.100,
91.000,-26.000,
92.000,-25.900,
93.000,-25.900,
94.000,-25.900,
95.000,-25.900,
96.000,-26.000,
97.000,-26.200,
98.000,-26.300,
99.000,-26.600,
100.000,-26.900,
101.000,-27.200,
102.000,-27.600,
103.000,-28.000,
104.000,-28.500,
105.000,-29.000,
106.000,-29.500,
107.000,-30.100,
108.000,-30.600,
109.000,-30.900,
110.000,-31.100,
111.000,-31.000,
112.000,-30.800,
113.000,-30.500,
114.000,-30.000,
115.000,-29.500,
116.000,-29.000,
117.000,-28.600,
118.000,-28.200,
119.000,-28.000,
120.000,-27.800,
121.000,-27.600,
122.000,-27.500,
123.000,-27.500,
124.000,-27.500,
125.000,-27.600,
126.000,-27.700,
127.000,-27.800,
128.000,-27.900,
129.000,-28.000,
130.000,-28.200,
131.000,-28.400,
132.000,-28.500,
133.000,-28.700,
134.000,-29.000,
135.000,-29.300,
136.000,-29.600,
137.000,-30.000,
138.000,-30.400,
139.000,-30.900,
140.000,-31.400,
141.000,-31.700,
142.000,-31.900,
143.000,-31.800,
144.000,-31.600,
145.000,-31.100,
146.000,-30.500,
147.000,-29.900,
148.000,-29.200,
149.000,-28.600,
150.000,-28.000,
151.000,-27.600,
152.000,-27.200,
153.000,-26.900,
154.000,-26.700,
155.000,-26.700,
156.000,-26.700,
157.000,-26.900,
158.000,-27.300,
159.000,-27.700,
160.000,-28.300,
161.000,-29.100,
162.000,-30.000,
163.000,-31.000,
164.000,-32.200,
165.000,-33.500,
166.000,-34.500,
167.000,-34.900,
168.000,-34.500,
169.000,-33.300,
170.000,-31.900,
171.000,-30.700,
172.000,-29.500,
173.000,-28.400,
174.000,-27.500,
175.000,-26.900,
176.000,-26.300,
177.000,-25.800,
178.000,-25.500,
179.000,-25.300,
ENDFIL:,EOF
