REVNUM:,NSMA WG16.99.050
REVDAT:,19990520
ANTMAN:,KATHREIN
MODNUM:,730382
DESCR1:,Panel
DESCR2:,14 dBd - Vertical polarization
DESCR3:,120 degree
DTDATA:,19921102
LOWFRQ:,870
HGHFRQ:,960
GUNITS:,DBD/DBR
MDGAIN:,14.0
AZWIDT:,120
ELWIDT:,6.5
ELTILT:,0.0
ANTLEN:,2.57
ANTWID:,0.26
ANTDEP:,0.10
ANTWGT:,12.0
PATTYP:,TYPICAL
NOFREQ:,1
PATFRE:,902.5
NUMCUT:,2
PATCUT:,AZ
POLARI:,V/V
NUPOIN:,360
FSTLST:,-180,179
-180.000,-20.120,
-179.000,-20.160,
-178.000,-20.250,
-177.000,-20.290,
-176.000,-20.320,
-175.000,-20.450,
-174.000,-20.560,
-173.000,-20.650,
-172.000,-20.740,
-171.000,-20.890,
-170.000,-21.090,
-169.000,-21.250,
-168.000,-21.350,
-167.000,-21.510,
-166.000,-21.660,
-165.000,-21.850,
-164.000,-22.010,
-163.000,-22.140,
-162.000,-22.230,
-161.000,-22.340,
-160.000,-22.410,
-159.000,-22.490,
-158.000,-22.520,
-157.000,-22.500,
-156.000,-22.420,
-155.000,-22.310,
-154.000,-22.150,
-153.000,-21.990,
-152.000,-21.810,
-151.000,-21.560,
-150.000,-21.280,
-149.000,-21.010,
-148.000,-20.710,
-147.000,-20.430,
-146.000,-20.090,
-145.000,-19.740,
-144.000,-19.260,
-143.000,-18.950,
-142.000,-18.610,
-141.000,-18.310,
-140.000,-17.960,
-139.000,-17.640,
-138.000,-17.320,
-137.000,-17.020,
-136.000,-16.740,
-135.000,-16.440,
-134.000,-16.150,
-133.000,-15.890,
-132.000,-15.630,
-131.000,-15.360,
-130.000,-15.120,
-129.000,-14.860,
-128.000,-14.600,
-127.000,-14.350,
-126.000,-14.150,
-125.000,-13.910,
-124.000,-13.670,
-123.000,-13.440,
-122.000,-13.250,
-121.000,-13.040,
-120.000,-12.810,
-119.000,-12.620,
-118.000,-12.410,
-117.000,-12.170,
-116.000,-11.960,
-115.000,-11.770,
-114.000,-11.570,
-113.000,-11.370,
-112.000,-11.160,
-111.000,-10.970,
-110.000,-10.790,
-109.000,-10.600,
-108.000,-10.420,
-107.000,-10.230,
-106.000,-10.050,
-105.000,-9.860,
-104.000,-9.680,
-103.000,-9.510,
-102.000,-9.330,
-101.000,-9.160,
-100.000,-8.960,
-99.000,-8.800,
-98.000,-8.620,
-97.000,-8.440,
-96.000,-8.270,
-95.000,-8.110,
-94.000,-7.950,
-93.000,-7.790,
-92.000,-7.640,
-91.000,-7.470,
-90.000,-7.290,
-89.000,-7.130,
-88.000,-7.000,
-87.000,-6.840,
-86.000,-6.670,
-85.000,-6.510,
-84.000,-6.360,
-83.000,-6.210,
-82.000,-6.060,
-81.000,-5.910,
-80.000,-5.780,
-79.000,-5.630,
-78.000,-5.490,
-77.000,-5.340,
-76.000,-5.210,
-75.000,-5.080,
-74.000,-4.940,
-73.000,-4.800,
-72.000,-4.670,
-71.000,-4.540,
-70.000,-4.400,
-69.000,-4.260,
-68.000,-4.150,
-67.000,-4.020,
-66.000,-3.900,
-65.000,-3.770,
-64.000,-3.650,
-63.000,-3.550,
-62.000,-3.430,
-61.000,-3.310,
-60.000,-3.200,
-59.000,-3.100,
-58.000,-2.990,
-57.000,-2.880,
-56.000,-2.780,
-55.000,-2.680,
-54.000,-2.590,
-53.000,-2.500,
-52.000,-2.410,
-51.000,-2.300,
-50.000,-2.220,
-49.000,-2.120,
-48.000,-2.040,
-47.000,-1.960,
-46.000,-1.880,
-45.000,-1.800,
-44.000,-1.710,
-43.000,-1.630,
-42.000,-1.550,
-41.000,-1.480,
-40.000,-1.410,
-39.000,-1.340,
-38.000,-1.270,
-37.000,-1.210,
-36.000,-1.150,
-35.000,-1.080,
-34.000,-1.030,
-33.000,-0.970,
-32.000,-0.910,
-31.000,-0.860,
-30.000,-0.800,
-29.000,-0.750,
-28.000,-0.690,
-27.000,-0.640,
-26.000,-0.590,
-25.000,-0.550,
-24.000,-0.500,
-23.000,-0.460,
-22.000,-0.420,
-21.000,-0.390,
-20.000,-0.360,
-19.000,-0.330,
-18.000,-0.300,
-17.000,-0.270,
-16.000,-0.240,
-15.000,-0.210,
-14.000,-0.180,
-13.000,-0.160,
-12.000,-0.140,
-11.000,-0.110,
-10.000,-0.080,
-9.000,-0.060,
-8.000,-0.060,
-7.000,-0.040,
-6.000,-0.040,
-5.000,-0.020,
-4.000,-0.020,
-3.000,-0.010,
-2.000,-0.010,
-1.000,0.000,
0.000,0.000,
1.000,-0.010,
2.000,-0.020,
3.000,-0.030,
4.000,-0.030,
5.000,-0.040,
6.000,-0.060,
7.000,-0.070,
8.000,-0.080,
9.000,-0.100,
10.000,-0.120,
11.000,-0.130,
12.000,-0.150,
13.000,-0.170,
14.000,-0.200,
15.000,-0.220,
16.000,-0.250,
17.000,-0.280,
18.000,-0.320,
19.000,-0.350,
20.000,-0.390,
21.000,-0.420,
22.000,-0.470,
23.000,-0.510,
24.000,-0.550,
25.000,-0.600,
26.000,-0.650,
27.000,-0.700,
28.000,-0.750,
29.000,-0.800,
30.000,-0.860,
31.000,-0.900,
32.000,-0.960,
33.000,-1.010,
34.000,-1.080,
35.000,-1.140,
36.000,-1.200,
37.000,-1.280,
38.000,-1.350,
39.000,-1.430,
40.000,-1.500,
41.000,-1.570,
42.000,-1.650,
43.000,-1.730,
44.000,-1.810,
45.000,-1.890,
46.000,-1.980,
47.000,-2.070,
48.000,-2.140,
49.000,-2.240,
50.000,-2.320,
51.000,-2.410,
52.000,-2.520,
53.000,-2.620,
54.000,-2.720,
55.000,-2.820,
56.000,-2.910,
57.000,-3.020,
58.000,-3.140,
59.000,-3.250,
60.000,-3.370,
61.000,-3.470,
62.000,-3.580,
63.000,-3.710,
64.000,-3.830,
65.000,-3.950,
66.000,-4.080,
67.000,-4.200,
68.000,-4.330,
69.000,-4.490,
70.000,-4.620,
71.000,-4.760,
72.000,-4.890,
73.000,-5.050,
74.000,-5.180,
75.000,-5.320,
76.000,-5.470,
77.000,-5.600,
78.000,-5.760,
79.000,-5.910,
80.000,-6.070,
81.000,-6.210,
82.000,-6.360,
83.000,-6.520,
84.000,-6.690,
85.000,-6.840,
86.000,-7.000,
87.000,-7.170,
88.000,-7.330,
89.000,-7.490,
90.000,-7.670,
91.000,-7.850,
92.000,-8.020,
93.000,-8.200,
94.000,-8.360,
95.000,-8.530,
96.000,-8.720,
97.000,-8.890,
98.000,-9.060,
99.000,-9.240,
100.000,-9.410,
101.000,-9.600,
102.000,-9.760,
103.000,-9.950,
104.000,-10.130,
105.000,-10.320,
106.000,-10.500,
107.000,-10.700,
108.000,-10.900,
109.000,-11.080,
110.000,-11.260,
111.000,-11.460,
112.000,-11.670,
113.000,-11.850,
114.000,-12.040,
115.000,-12.240,
116.000,-12.460,
117.000,-12.640,
118.000,-12.840,
119.000,-13.050,
120.000,-13.240,
121.000,-13.470,
122.000,-13.690,
123.000,-13.930,
124.000,-14.140,
125.000,-14.350,
126.000,-14.610,
127.000,-14.830,
128.000,-15.090,
129.000,-15.330,
130.000,-15.600,
131.000,-15.840,
132.000,-16.120,
133.000,-16.390,
134.000,-16.670,
135.000,-16.980,
136.000,-17.260,
137.000,-17.550,
138.000,-17.860,
139.000,-18.170,
140.000,-18.460,
141.000,-18.800,
142.000,-19.130,
143.000,-19.580,
144.000,-19.870,
145.000,-20.170,
146.000,-20.480,
147.000,-20.760,
148.000,-20.990,
149.000,-21.210,
150.000,-21.440,
151.000,-21.640,
152.000,-21.780,
153.000,-21.890,
154.000,-21.980,
155.000,-22.060,
156.000,-22.100,
157.000,-22.070,
158.000,-22.030,
159.000,-21.970,
160.000,-21.880,
161.000,-21.760,
162.000,-21.650,
163.000,-21.550,
164.000,-21.400,
165.000,-21.250,
166.000,-21.120,
167.000,-21.000,
168.000,-20.860,
169.000,-20.710,
170.000,-20.600,
171.000,-20.510,
172.000,-20.400,
173.000,-20.290,
174.000,-20.240,
175.000,-20.190,
176.000,-20.140,
177.000,-20.110,
178.000,-20.120,
179.000,-20.140,
PATCUT:,EL
POLARI:,V/V
NUPOIN:,360
FSTLST:,-180,179
-180.000,-20.660,
-179.000,-21.040,
-178.000,-22.030,
-177.000,-23.990,
-176.000,-26.690,
-175.000,-30.530,
-174.000,-38.630,
-173.000,-54.160,
-172.000,-37.230,
-171.000,-33.700,
-170.000,-32.360,
-169.000,-32.500,
-168.000,-33.640,
-167.000,-36.120,
-166.000,-40.040,
-165.000,-46.190,
-164.000,-47.200,
-163.000,-43.250,
-162.000,-41.360,
-161.000,-41.120,
-160.000,-41.850,
-159.000,-42.980,
-158.000,-43.530,
-157.000,-43.150,
-156.000,-42.710,
-155.000,-42.700,
-154.000,-43.360,
-153.000,-43.990,
-152.000,-43.640,
-151.000,-42.220,
-150.000,-40.680,
-149.000,-39.910,
-148.000,-39.830,
-147.000,-40.810,
-146.000,-43.080,
-145.000,-47.160,
-144.000,-49.900,
-143.000,-45.130,
-142.000,-41.050,
-141.000,-38.730,
-140.000,-37.610,
-139.000,-37.370,
-138.000,-38.130,
-137.000,-40.270,
-136.000,-44.040,
-135.000,-52.850,
-134.000,-47.130,
-133.000,-40.480,
-132.000,-37.290,
-131.000,-35.080,
-130.000,-33.830,
-129.000,-33.260,
-128.000,-33.280,
-127.000,-33.910,
-126.000,-35.300,
-125.000,-37.670,
-124.000,-41.340,
-123.000,-51.150,
-122.000,-50.000,
-121.000,-40.740,
-120.000,-36.760,
-119.000,-34.130,
-118.000,-32.330,
-117.000,-31.190,
-116.000,-30.350,
-115.000,-29.890,
-114.000,-29.650,
-113.000,-29.690,
-112.000,-29.970,
-111.000,-30.420,
-110.000,-31.160,
-109.000,-32.020,
-108.000,-33.250,
-107.000,-34.850,
-106.000,-36.870,
-105.000,-39.310,
-104.000,-41.790,
-103.000,-43.730,
-102.000,-42.630,
-101.000,-39.790,
-100.000,-37.310,
-99.000,-34.900,
-98.000,-32.880,
-97.000,-31.210,
-96.000,-29.900,
-95.000,-28.700,
-94.000,-27.640,
-93.000,-26.720,
-92.000,-26.000,
-91.000,-25.250,
-90.000,-24.570,
-89.000,-23.770,
-88.000,-23.260,
-87.000,-22.770,
-86.000,-22.330,
-85.000,-21.930,
-84.000,-21.590,
-83.000,-21.270,
-82.000,-20.950,
-81.000,-20.740,
-80.000,-20.540,
-79.000,-20.400,
-78.000,-20.330,
-77.000,-20.330,
-76.000,-20.400,
-75.000,-20.540,
-74.000,-20.800,
-73.000,-21.180,
-72.000,-21.670,
-71.000,-22.390,
-70.000,-23.550,
-69.000,-24.810,
-68.000,-26.350,
-67.000,-28.540,
-66.000,-31.700,
-65.000,-35.910,
-64.000,-40.950,
-63.000,-37.030,
-62.000,-32.480,
-61.000,-29.600,
-60.000,-27.950,
-59.000,-26.840,
-58.000,-26.310,
-57.000,-26.310,
-56.000,-26.810,
-55.000,-28.010,
-54.000,-29.730,
-53.000,-32.390,
-52.000,-34.470,
-51.000,-32.560,
-50.000,-29.590,
-49.000,-26.980,
-48.000,-25.290,
-47.000,-24.360,
-46.000,-23.920,
-45.000,-24.370,
-44.000,-25.450,
-43.000,-27.590,
-42.000,-31.200,
-41.000,-38.750,
-40.000,-35.140,
-39.000,-28.900,
-38.000,-25.860,
-37.000,-23.910,
-36.000,-23.310,
-35.000,-24.030,
-34.000,-25.610,
-33.000,-29.550,
-32.000,-39.490,
-31.000,-32.250,
-30.000,-25.580,
-29.000,-22.350,
-28.000,-20.620,
-27.000,-20.180,
-26.000,-20.980,
-25.000,-23.420,
-24.000,-28.460,
-23.000,-36.910,
-22.000,-26.210,
-21.000,-21.450,
-20.000,-18.900,
-19.000,-18.010,
-18.000,-18.690,
-17.000,-21.010,
-16.000,-27.450,
-15.000,-27.250,
-14.000,-19.300,
-13.000,-15.640,
-12.000,-13.430,
-11.000,-12.640,
-10.000,-13.100,
-9.000,-15.360,
-8.000,-20.550,
-7.000,-18.350,
-6.000,-11.810,
-5.000,-7.140,
-4.000,-4.200,
-3.000,-2.060,
-2.000,-0.820,
-1.000,-0.170,
0.000,0.000,
1.000,-0.340,
2.000,-1.310,
3.000,-2.590,
4.000,-5.080,
5.000,-8.620,
6.000,-12.740,
7.000,-19.060,
8.000,-17.820,
9.000,-14.760,
10.000,-13.230,
11.000,-13.300,
12.000,-14.830,
13.000,-17.460,
14.000,-23.590,
15.000,-29.510,
16.000,-22.090,
17.000,-18.780,
18.000,-17.230,
19.000,-17.290,
20.000,-18.590,
21.000,-21.310,
22.000,-27.100,
23.000,-36.570,
24.000,-27.670,
25.000,-23.080,
26.000,-21.110,
27.000,-20.610,
28.000,-21.390,
29.000,-23.230,
30.000,-27.190,
31.000,-36.070,
32.000,-38.010,
33.000,-29.790,
34.000,-26.070,
35.000,-24.460,
36.000,-24.240,
37.000,-24.970,
38.000,-27.010,
39.000,-30.650,
40.000,-35.630,
41.000,-34.730,
42.000,-29.950,
43.000,-27.030,
44.000,-25.480,
45.000,-24.680,
46.000,-24.630,
47.000,-25.290,
48.000,-26.560,
49.000,-28.760,
50.000,-31.880,
51.000,-35.500,
52.000,-35.250,
53.000,-32.140,
54.000,-29.590,
55.000,-28.040,
56.000,-27.070,
57.000,-26.690,
58.000,-26.800,
59.000,-27.380,
60.000,-28.490,
61.000,-30.340,
62.000,-33.170,
63.000,-37.570,
64.000,-42.110,
65.000,-38.540,
66.000,-33.660,
67.000,-30.460,
68.000,-28.370,
69.000,-26.690,
70.000,-25.480,
71.000,-24.620,
72.000,-23.680,
73.000,-23.140,
74.000,-22.730,
75.000,-22.490,
76.000,-22.380,
77.000,-22.340,
78.000,-22.400,
79.000,-22.510,
80.000,-22.660,
81.000,-22.980,
82.000,-23.300,
83.000,-23.780,
84.000,-23.990,
85.000,-24.570,
86.000,-25.000,
87.000,-25.430,
88.000,-25.910,
89.000,-26.380,
90.000,-26.840,
91.000,-27.380,
92.000,-27.930,
93.000,-28.510,
94.000,-29.070,
95.000,-29.760,
96.000,-30.540,
97.000,-31.410,
98.000,-32.440,
99.000,-33.500,
100.000,-34.880,
101.000,-36.540,
102.000,-38.280,
103.000,-39.870,
104.000,-41.320,
105.000,-40.970,
106.000,-39.660,
107.000,-38.080,
108.000,-36.360,
109.000,-35.120,
110.000,-33.990,
111.000,-33.300,
112.000,-32.800,
113.000,-32.570,
114.000,-32.610,
115.000,-32.940,
116.000,-33.690,
117.000,-34.880,
118.000,-36.520,
119.000,-39.200,
120.000,-43.800,
121.000,-51.170,
122.000,-48.370,
123.000,-41.660,
124.000,-38.190,
125.000,-36.090,
126.000,-34.900,
127.000,-34.250,
128.000,-34.140,
129.000,-34.490,
130.000,-35.420,
131.000,-37.080,
132.000,-39.610,
133.000,-42.710,
134.000,-46.070,
135.000,-45.050,
136.000,-42.090,
137.000,-40.280,
138.000,-39.290,
139.000,-39.380,
140.000,-40.340,
141.000,-42.610,
142.000,-46.590,
143.000,-57.540,
144.000,-52.020,
145.000,-44.650,
146.000,-41.440,
147.000,-39.500,
148.000,-38.440,
149.000,-38.010,
150.000,-38.030,
151.000,-38.210,
152.000,-38.670,
153.000,-39.320,
154.000,-40.250,
155.000,-42.000,
156.000,-45.340,
157.000,-52.470,
158.000,-56.870,
159.000,-46.930,
160.000,-43.070,
161.000,-41.670,
162.000,-41.790,
163.000,-43.980,
164.000,-50.140,
165.000,-49.650,
166.000,-41.340,
167.000,-36.960,
168.000,-34.500,
169.000,-33.440,
170.000,-33.560,
171.000,-35.380,
172.000,-40.340,
173.000,-42.410,
174.000,-33.730,
175.000,-28.450,
176.000,-25.180,
177.000,-23.050,
178.000,-21.650,
179.000,-20.870,
ENDFIL:,EOF
