REVNUM:,NSMA WG16.99.050
REVDAT:,19990520
ANTMAN:,KATHREIN
MODNUM:,730378V02
DESCR1:,Panel
DESCR2:,14.69 dBd - Vertical polarization
DESCR3:,88.7 degree
DTDATA:,20110616
LOWFRQ:,790
HGHFRQ:,960
GUNITS:,DBD/DBR
MDGAIN:,14.7
AZWIDT:,88.7
ELWIDT:,6.9
ELTILT:,0.0
ANTLEN:,2.57
ANTWID:,0.26
ANTDEP:,0.10
ANTWGT:,12.0
PATTYP:,TYPICAL
NOFREQ:,1
PATFRE:,862.0
NUMCUT:,2
PATCUT:,AZ
POLARI:,V/V
NUPOIN:,360
FSTLST:,-180,179
-180.000,-21.770,
-179.000,-21.760,
-178.000,-21.760,
-177.000,-21.780,
-176.000,-21.820,
-175.000,-21.870,
-174.000,-21.920,
-173.000,-21.980,
-172.000,-22.060,
-171.000,-22.140,
-170.000,-22.230,
-169.000,-22.340,
-168.000,-22.480,
-167.000,-22.630,
-166.000,-22.800,
-165.000,-22.970,
-164.000,-23.130,
-163.000,-23.280,
-162.000,-23.390,
-161.000,-23.490,
-160.000,-23.560,
-159.000,-23.610,
-158.000,-23.660,
-157.000,-23.700,
-156.000,-23.750,
-155.000,-23.780,
-154.000,-23.780,
-153.000,-23.740,
-152.000,-23.660,
-151.000,-23.520,
-150.000,-23.340,
-149.000,-23.130,
-148.000,-22.900,
-147.000,-22.670,
-146.000,-22.450,
-145.000,-22.230,
-144.000,-22.020,
-143.000,-21.790,
-142.000,-21.560,
-141.000,-21.310,
-140.000,-21.040,
-139.000,-20.760,
-138.000,-20.480,
-137.000,-20.220,
-136.000,-19.960,
-135.000,-19.710,
-134.000,-19.460,
-133.000,-19.220,
-132.000,-18.970,
-131.000,-18.710,
-130.000,-18.440,
-129.000,-18.180,
-128.000,-17.920,
-127.000,-17.680,
-126.000,-17.460,
-125.000,-17.250,
-124.000,-17.060,
-123.000,-16.880,
-122.000,-16.700,
-121.000,-16.520,
-120.000,-16.320,
-119.000,-16.120,
-118.000,-15.900,
-117.000,-15.680,
-116.000,-15.450,
-115.000,-15.220,
-114.000,-15.000,
-113.000,-14.790,
-112.000,-14.590,
-111.000,-14.400,
-110.000,-14.210,
-109.000,-14.040,
-108.000,-13.860,
-107.000,-13.690,
-106.000,-13.520,
-105.000,-13.350,
-104.000,-13.170,
-103.000,-12.970,
-102.000,-12.770,
-101.000,-12.560,
-100.000,-12.350,
-99.000,-12.140,
-98.000,-11.930,
-97.000,-11.730,
-96.000,-11.540,
-95.000,-11.350,
-94.000,-11.180,
-93.000,-11.000,
-92.000,-10.820,
-91.000,-10.640,
-90.000,-10.450,
-89.000,-10.250,
-88.000,-10.050,
-87.000,-9.850,
-86.000,-9.660,
-85.000,-9.470,
-84.000,-9.280,
-83.000,-9.090,
-82.000,-8.910,
-81.000,-8.720,
-80.000,-8.540,
-79.000,-8.350,
-78.000,-8.170,
-77.000,-7.980,
-76.000,-7.800,
-75.000,-7.630,
-74.000,-7.460,
-73.000,-7.300,
-72.000,-7.130,
-71.000,-6.970,
-70.000,-6.810,
-69.000,-6.640,
-68.000,-6.470,
-67.000,-6.300,
-66.000,-6.120,
-65.000,-5.950,
-64.000,-5.790,
-63.000,-5.630,
-62.000,-5.480,
-61.000,-5.330,
-60.000,-5.180,
-59.000,-5.040,
-58.000,-4.890,
-57.000,-4.740,
-56.000,-4.600,
-55.000,-4.450,
-54.000,-4.300,
-53.000,-4.150,
-52.000,-4.010,
-51.000,-3.870,
-50.000,-3.740,
-49.000,-3.610,
-48.000,-3.490,
-47.000,-3.360,
-46.000,-3.240,
-45.000,-3.120,
-44.000,-2.990,
-43.000,-2.860,
-42.000,-2.740,
-41.000,-2.620,
-40.000,-2.490,
-39.000,-2.380,
-38.000,-2.270,
-37.000,-2.160,
-36.000,-2.060,
-35.000,-1.960,
-34.000,-1.860,
-33.000,-1.760,
-32.000,-1.660,
-31.000,-1.560,
-30.000,-1.460,
-29.000,-1.370,
-28.000,-1.270,
-27.000,-1.190,
-26.000,-1.100,
-25.000,-1.020,
-24.000,-0.950,
-23.000,-0.880,
-22.000,-0.810,
-21.000,-0.740,
-20.000,-0.680,
-19.000,-0.620,
-18.000,-0.560,
-17.000,-0.500,
-16.000,-0.450,
-15.000,-0.390,
-14.000,-0.340,
-13.000,-0.300,
-12.000,-0.250,
-11.000,-0.210,
-10.000,-0.180,
-9.000,-0.140,
-8.000,-0.110,
-7.000,-0.090,
-6.000,-0.060,
-5.000,-0.040,
-4.000,-0.020,
-3.000,-0.010,
-2.000,0.000,
-1.000,0.000,
0.000,0.000,
1.000,0.000,
2.000,-0.010,
3.000,-0.020,
4.000,-0.030,
5.000,-0.040,
6.000,-0.060,
7.000,-0.080,
8.000,-0.100,
9.000,-0.130,
10.000,-0.170,
11.000,-0.210,
12.000,-0.250,
13.000,-0.300,
14.000,-0.350,
15.000,-0.400,
16.000,-0.460,
17.000,-0.520,
18.000,-0.570,
19.000,-0.630,
20.000,-0.690,
21.000,-0.760,
22.000,-0.830,
23.000,-0.900,
24.000,-0.970,
25.000,-1.050,
26.000,-1.130,
27.000,-1.210,
28.000,-1.290,
29.000,-1.370,
30.000,-1.460,
31.000,-1.540,
32.000,-1.640,
33.000,-1.730,
34.000,-1.830,
35.000,-1.940,
36.000,-2.050,
37.000,-2.160,
38.000,-2.270,
39.000,-2.380,
40.000,-2.490,
41.000,-2.600,
42.000,-2.710,
43.000,-2.820,
44.000,-2.930,
45.000,-3.050,
46.000,-3.180,
47.000,-3.300,
48.000,-3.430,
49.000,-3.570,
50.000,-3.700,
51.000,-3.840,
52.000,-3.970,
53.000,-4.110,
54.000,-4.240,
55.000,-4.380,
56.000,-4.520,
57.000,-4.660,
58.000,-4.800,
59.000,-4.950,
60.000,-5.100,
61.000,-5.250,
62.000,-5.400,
63.000,-5.550,
64.000,-5.710,
65.000,-5.860,
66.000,-6.010,
67.000,-6.160,
68.000,-6.310,
69.000,-6.470,
70.000,-6.630,
71.000,-6.790,
72.000,-6.960,
73.000,-7.140,
74.000,-7.310,
75.000,-7.490,
76.000,-7.670,
77.000,-7.840,
78.000,-8.010,
79.000,-8.180,
80.000,-8.350,
81.000,-8.520,
82.000,-8.690,
83.000,-8.870,
84.000,-9.050,
85.000,-9.240,
86.000,-9.430,
87.000,-9.630,
88.000,-9.820,
89.000,-10.020,
90.000,-10.210,
91.000,-10.390,
92.000,-10.580,
93.000,-10.770,
94.000,-10.960,
95.000,-11.150,
96.000,-11.340,
97.000,-11.540,
98.000,-11.750,
99.000,-11.960,
100.000,-12.160,
101.000,-12.370,
102.000,-12.570,
103.000,-12.770,
104.000,-12.970,
105.000,-13.160,
106.000,-13.350,
107.000,-13.540,
108.000,-13.730,
109.000,-13.920,
110.000,-14.110,
111.000,-14.300,
112.000,-14.500,
113.000,-14.710,
114.000,-14.920,
115.000,-15.140,
116.000,-15.360,
117.000,-15.580,
118.000,-15.800,
119.000,-16.020,
120.000,-16.240,
121.000,-16.460,
122.000,-16.680,
123.000,-16.910,
124.000,-17.140,
125.000,-17.380,
126.000,-17.620,
127.000,-17.870,
128.000,-18.110,
129.000,-18.370,
130.000,-18.620,
131.000,-18.880,
132.000,-19.150,
133.000,-19.410,
134.000,-19.670,
135.000,-19.930,
136.000,-20.180,
137.000,-20.430,
138.000,-20.670,
139.000,-20.900,
140.000,-21.140,
141.000,-21.400,
142.000,-21.680,
143.000,-21.970,
144.000,-22.280,
145.000,-22.600,
146.000,-22.910,
147.000,-23.180,
148.000,-23.410,
149.000,-23.600,
150.000,-23.740,
151.000,-23.840,
152.000,-23.930,
153.000,-24.010,
154.000,-24.080,
155.000,-24.130,
156.000,-24.170,
157.000,-24.170,
158.000,-24.130,
159.000,-24.040,
160.000,-23.920,
161.000,-23.770,
162.000,-23.600,
163.000,-23.420,
164.000,-23.250,
165.000,-23.080,
166.000,-22.910,
167.000,-22.760,
168.000,-22.620,
169.000,-22.490,
170.000,-22.380,
171.000,-22.280,
172.000,-22.200,
173.000,-22.130,
174.000,-22.060,
175.000,-22.000,
176.000,-21.950,
177.000,-21.890,
178.000,-21.850,
179.000,-21.810,
PATCUT:,EL
POLARI:,V/V
NUPOIN:,360
FSTLST:,-180,179
-180.000,-21.770,
-179.000,-21.780,
-178.000,-22.190,
-177.000,-23.060,
-176.000,-24.490,
-175.000,-26.620,
-174.000,-29.710,
-173.000,-34.390,
-172.000,-41.760,
-171.000,-42.170,
-170.000,-37.280,
-169.000,-35.070,
-168.000,-34.410,
-167.000,-34.790,
-166.000,-36.010,
-165.000,-37.980,
-164.000,-40.650,
-163.000,-43.590,
-162.000,-45.040,
-161.000,-43.800,
-160.000,-41.810,
-159.000,-40.250,
-158.000,-39.350,
-157.000,-39.190,
-156.000,-39.880,
-155.000,-41.610,
-154.000,-44.500,
-153.000,-46.750,
-152.000,-44.450,
-151.000,-41.350,
-150.000,-39.460,
-149.000,-38.730,
-148.000,-39.060,
-147.000,-40.510,
-146.000,-43.380,
-145.000,-47.900,
-144.000,-48.580,
-143.000,-43.860,
-142.000,-40.540,
-141.000,-38.610,
-140.000,-37.660,
-139.000,-37.540,
-138.000,-38.210,
-137.000,-39.670,
-136.000,-41.870,
-135.000,-43.910,
-134.000,-43.780,
-133.000,-42.060,
-132.000,-40.710,
-131.000,-40.310,
-130.000,-40.970,
-129.000,-42.870,
-128.000,-46.380,
-127.000,-51.090,
-126.000,-50.240,
-125.000,-46.930,
-124.000,-45.540,
-123.000,-45.980,
-122.000,-48.060,
-121.000,-49.490,
-120.000,-45.950,
-119.000,-41.840,
-118.000,-38.860,
-117.000,-36.790,
-116.000,-35.360,
-115.000,-34.450,
-114.000,-33.990,
-113.000,-33.960,
-112.000,-34.370,
-111.000,-35.280,
-110.000,-36.740,
-109.000,-38.770,
-108.000,-41.130,
-107.000,-42.660,
-106.000,-42.010,
-105.000,-40.340,
-104.000,-38.940,
-103.000,-38.130,
-102.000,-37.900,
-101.000,-38.250,
-100.000,-39.210,
-99.000,-40.960,
-98.000,-43.860,
-97.000,-48.340,
-96.000,-49.020,
-95.000,-43.760,
-94.000,-39.850,
-93.000,-37.250,
-92.000,-35.460,
-91.000,-34.220,
-90.000,-33.320,
-89.000,-32.630,
-88.000,-32.070,
-87.000,-31.600,
-86.000,-31.210,
-85.000,-30.920,
-84.000,-30.760,
-83.000,-30.730,
-82.000,-30.820,
-81.000,-31.000,
-80.000,-31.240,
-79.000,-31.500,
-78.000,-31.770,
-77.000,-32.060,
-76.000,-32.410,
-75.000,-32.850,
-74.000,-33.400,
-73.000,-34.100,
-72.000,-34.930,
-71.000,-35.910,
-70.000,-37.050,
-69.000,-38.400,
-68.000,-40.050,
-67.000,-41.870,
-66.000,-42.970,
-65.000,-41.840,
-64.000,-39.340,
-63.000,-36.980,
-62.000,-35.220,
-61.000,-34.090,
-60.000,-33.570,
-59.000,-33.650,
-58.000,-34.380,
-57.000,-35.870,
-56.000,-38.370,
-55.000,-42.110,
-54.000,-44.340,
-53.000,-40.480,
-52.000,-36.500,
-51.000,-33.690,
-50.000,-31.750,
-49.000,-30.490,
-48.000,-29.870,
-47.000,-29.930,
-46.000,-30.880,
-45.000,-33.210,
-44.000,-38.610,
-43.000,-57.080,
-42.000,-35.690,
-41.000,-29.840,
-40.000,-26.550,
-39.000,-24.560,
-38.000,-23.490,
-37.000,-23.260,
-36.000,-23.900,
-35.000,-25.670,
-34.000,-29.300,
-33.000,-36.440,
-32.000,-32.990,
-31.000,-26.630,
-30.000,-23.240,
-29.000,-21.460,
-28.000,-20.890,
-27.000,-21.520,
-26.000,-23.740,
-25.000,-29.260,
-24.000,-43.360,
-23.000,-26.170,
-22.000,-20.800,
-21.000,-18.020,
-20.000,-16.700,
-19.000,-16.550,
-18.000,-17.660,
-17.000,-20.580,
-16.000,-27.450,
-15.000,-28.940,
-14.000,-20.330,
-13.000,-16.400,
-12.000,-14.540,
-11.000,-14.220,
-10.000,-15.580,
-9.000,-19.970,
-8.000,-30.730,
-7.000,-16.530,
-6.000,-10.220,
-5.000,-6.400,
-4.000,-3.810,
-3.000,-2.020,
-2.000,-0.850,
-1.000,-0.190,
0.000,0.000,
1.000,-0.270,
2.000,-1.020,
3.000,-2.300,
4.000,-4.230,
5.000,-7.040,
6.000,-11.280,
7.000,-18.860,
8.000,-29.530,
9.000,-17.770,
10.000,-14.250,
11.000,-13.130,
12.000,-13.450,
13.000,-15.060,
14.000,-18.250,
15.000,-24.380,
16.000,-32.980,
17.000,-23.850,
18.000,-19.890,
19.000,-18.390,
20.000,-18.400,
21.000,-19.790,
22.000,-22.980,
23.000,-30.150,
24.000,-38.920,
25.000,-25.920,
26.000,-21.750,
27.000,-19.870,
28.000,-19.330,
29.000,-19.870,
30.000,-21.560,
31.000,-24.740,
32.000,-30.230,
33.000,-32.430,
34.000,-26.950,
35.000,-23.660,
36.000,-22.060,
37.000,-21.610,
38.000,-22.140,
39.000,-23.660,
40.000,-26.480,
41.000,-31.490,
42.000,-39.300,
43.000,-33.120,
44.000,-28.250,
45.000,-25.720,
46.000,-24.440,
47.000,-23.960,
48.000,-24.110,
49.000,-24.800,
50.000,-25.960,
51.000,-27.510,
52.000,-29.220,
53.000,-30.540,
54.000,-30.820,
55.000,-30.220,
56.000,-29.450,
57.000,-28.940,
58.000,-28.860,
59.000,-29.260,
60.000,-30.200,
61.000,-31.720,
62.000,-33.900,
63.000,-36.530,
64.000,-38.140,
65.000,-36.850,
66.000,-34.490,
67.000,-32.550,
68.000,-31.220,
69.000,-30.410,
70.000,-29.990,
71.000,-29.870,
72.000,-29.950,
73.000,-30.100,
74.000,-30.190,
75.000,-30.140,
76.000,-29.930,
77.000,-29.620,
78.000,-29.300,
79.000,-29.040,
80.000,-28.890,
81.000,-28.890,
82.000,-29.020,
83.000,-29.260,
84.000,-29.570,
85.000,-29.920,
86.000,-30.290,
87.000,-30.650,
88.000,-31.030,
89.000,-31.450,
90.000,-31.920,
91.000,-32.490,
92.000,-33.180,
93.000,-33.980,
94.000,-34.820,
95.000,-35.570,
96.000,-36.010,
97.000,-36.020,
98.000,-35.660,
99.000,-35.130,
100.000,-34.620,
101.000,-34.210,
102.000,-33.940,
103.000,-33.790,
104.000,-33.750,
105.000,-33.770,
106.000,-33.790,
107.000,-33.730,
108.000,-33.480,
109.000,-33.000,
110.000,-32.340,
111.000,-31.650,
112.000,-31.080,
113.000,-30.750,
114.000,-30.770,
115.000,-31.200,
116.000,-32.100,
117.000,-33.580,
118.000,-35.730,
119.000,-38.520,
120.000,-40.730,
121.000,-39.690,
122.000,-37.000,
123.000,-34.730,
124.000,-33.150,
125.000,-32.190,
126.000,-31.780,
127.000,-31.870,
128.000,-32.440,
129.000,-33.430,
130.000,-34.690,
131.000,-35.850,
132.000,-36.320,
133.000,-35.960,
134.000,-35.260,
135.000,-34.740,
136.000,-34.610,
137.000,-34.970,
138.000,-35.840,
139.000,-37.190,
140.000,-38.910,
141.000,-40.560,
142.000,-41.300,
143.000,-40.750,
144.000,-39.600,
145.000,-38.490,
146.000,-37.590,
147.000,-36.870,
148.000,-36.290,
149.000,-35.860,
150.000,-35.690,
151.000,-35.890,
152.000,-36.600,
153.000,-37.900,
154.000,-39.550,
155.000,-40.480,
156.000,-39.620,
157.000,-38.050,
158.000,-37.020,
159.000,-36.990,
160.000,-38.230,
161.000,-41.330,
162.000,-46.960,
163.000,-44.470,
164.000,-38.790,
165.000,-35.600,
166.000,-33.970,
167.000,-33.490,
168.000,-34.050,
169.000,-35.800,
170.000,-39.030,
171.000,-41.760,
172.000,-37.740,
173.000,-33.120,
174.000,-29.770,
175.000,-27.290,
176.000,-25.400,
177.000,-23.950,
178.000,-22.870,
179.000,-22.150,
ENDFIL:,EOF
