REVNUM:,NSMA WG16.99.050
REVDAT:,19990520
ANTMAN:,KATHREIN
MODNUM:,730378V02
DESCR1:,Panel
DESCR2:,14.21 dBd - Vertical polarization
DESCR3:,91.4 degree
DTDATA:,20110616
LOWFRQ:,790
HGHFRQ:,960
GUNITS:,DBD/DBR
MDGAIN:,14.2
AZWIDT:,91.4
ELWIDT:,7.6
ELTILT:,0.0
ANTLEN:,2.57
ANTWID:,0.26
ANTDEP:,0.10
ANTWGT:,12.0
PATTYP:,TYPICAL
NOFREQ:,1
PATFRE:,791.0
NUMCUT:,2
PATCUT:,AZ
POLARI:,V/V
NUPOIN:,360
FSTLST:,-180,179
-180.000,-20.880,
-179.000,-20.910,
-178.000,-20.940,
-177.000,-20.960,
-176.000,-20.990,
-175.000,-21.030,
-174.000,-21.060,
-173.000,-21.080,
-172.000,-21.110,
-171.000,-21.150,
-170.000,-21.190,
-169.000,-21.230,
-168.000,-21.290,
-167.000,-21.350,
-166.000,-21.410,
-165.000,-21.470,
-164.000,-21.530,
-163.000,-21.580,
-162.000,-21.610,
-161.000,-21.630,
-160.000,-21.630,
-159.000,-21.630,
-158.000,-21.610,
-157.000,-21.590,
-156.000,-21.560,
-155.000,-21.510,
-154.000,-21.450,
-153.000,-21.370,
-152.000,-21.280,
-151.000,-21.170,
-150.000,-21.040,
-149.000,-20.910,
-148.000,-20.770,
-147.000,-20.640,
-146.000,-20.500,
-145.000,-20.370,
-144.000,-20.230,
-143.000,-20.080,
-142.000,-19.910,
-141.000,-19.720,
-140.000,-19.520,
-139.000,-19.300,
-138.000,-19.090,
-137.000,-18.880,
-136.000,-18.670,
-135.000,-18.480,
-134.000,-18.300,
-133.000,-18.130,
-132.000,-17.960,
-131.000,-17.780,
-130.000,-17.600,
-129.000,-17.410,
-128.000,-17.200,
-127.000,-17.000,
-126.000,-16.800,
-125.000,-16.590,
-124.000,-16.400,
-123.000,-16.220,
-122.000,-16.050,
-121.000,-15.890,
-120.000,-15.730,
-119.000,-15.570,
-118.000,-15.410,
-117.000,-15.250,
-116.000,-15.090,
-115.000,-14.920,
-114.000,-14.750,
-113.000,-14.580,
-112.000,-14.400,
-111.000,-14.220,
-110.000,-14.040,
-109.000,-13.850,
-108.000,-13.650,
-107.000,-13.460,
-106.000,-13.260,
-105.000,-13.060,
-104.000,-12.870,
-103.000,-12.670,
-102.000,-12.480,
-101.000,-12.290,
-100.000,-12.100,
-99.000,-11.920,
-98.000,-11.740,
-97.000,-11.560,
-96.000,-11.380,
-95.000,-11.200,
-94.000,-11.010,
-93.000,-10.820,
-92.000,-10.630,
-91.000,-10.440,
-90.000,-10.240,
-89.000,-10.050,
-88.000,-9.860,
-87.000,-9.660,
-86.000,-9.480,
-85.000,-9.290,
-84.000,-9.110,
-83.000,-8.930,
-82.000,-8.750,
-81.000,-8.570,
-80.000,-8.380,
-79.000,-8.200,
-78.000,-8.020,
-77.000,-7.830,
-76.000,-7.650,
-75.000,-7.470,
-74.000,-7.290,
-73.000,-7.110,
-72.000,-6.940,
-71.000,-6.770,
-70.000,-6.600,
-69.000,-6.430,
-68.000,-6.260,
-67.000,-6.100,
-66.000,-5.930,
-65.000,-5.770,
-64.000,-5.610,
-63.000,-5.450,
-62.000,-5.300,
-61.000,-5.150,
-60.000,-5.000,
-59.000,-4.850,
-58.000,-4.700,
-57.000,-4.560,
-56.000,-4.410,
-55.000,-4.270,
-54.000,-4.130,
-53.000,-3.990,
-52.000,-3.850,
-51.000,-3.710,
-50.000,-3.570,
-49.000,-3.440,
-48.000,-3.300,
-47.000,-3.170,
-46.000,-3.040,
-45.000,-2.920,
-44.000,-2.790,
-43.000,-2.670,
-42.000,-2.560,
-41.000,-2.440,
-40.000,-2.330,
-39.000,-2.220,
-38.000,-2.110,
-37.000,-2.010,
-36.000,-1.910,
-35.000,-1.810,
-34.000,-1.710,
-33.000,-1.610,
-32.000,-1.520,
-31.000,-1.430,
-30.000,-1.340,
-29.000,-1.250,
-28.000,-1.170,
-27.000,-1.090,
-26.000,-1.010,
-25.000,-0.930,
-24.000,-0.850,
-23.000,-0.780,
-22.000,-0.710,
-21.000,-0.640,
-20.000,-0.580,
-19.000,-0.520,
-18.000,-0.470,
-17.000,-0.420,
-16.000,-0.380,
-15.000,-0.330,
-14.000,-0.290,
-13.000,-0.250,
-12.000,-0.210,
-11.000,-0.170,
-10.000,-0.130,
-9.000,-0.100,
-8.000,-0.070,
-7.000,-0.050,
-6.000,-0.040,
-5.000,-0.020,
-4.000,-0.010,
-3.000,-0.010,
-2.000,0.000,
-1.000,0.000,
0.000,0.000,
1.000,0.000,
2.000,0.000,
3.000,-0.010,
4.000,-0.020,
5.000,-0.030,
6.000,-0.050,
7.000,-0.070,
8.000,-0.100,
9.000,-0.130,
10.000,-0.160,
11.000,-0.200,
12.000,-0.230,
13.000,-0.270,
14.000,-0.310,
15.000,-0.360,
16.000,-0.400,
17.000,-0.450,
18.000,-0.500,
19.000,-0.560,
20.000,-0.620,
21.000,-0.680,
22.000,-0.740,
23.000,-0.810,
24.000,-0.880,
25.000,-0.950,
26.000,-1.020,
27.000,-1.100,
28.000,-1.180,
29.000,-1.260,
30.000,-1.340,
31.000,-1.430,
32.000,-1.520,
33.000,-1.610,
34.000,-1.700,
35.000,-1.800,
36.000,-1.900,
37.000,-2.010,
38.000,-2.110,
39.000,-2.220,
40.000,-2.340,
41.000,-2.450,
42.000,-2.560,
43.000,-2.680,
44.000,-2.790,
45.000,-2.910,
46.000,-3.030,
47.000,-3.150,
48.000,-3.270,
49.000,-3.400,
50.000,-3.530,
51.000,-3.660,
52.000,-3.800,
53.000,-3.940,
54.000,-4.080,
55.000,-4.220,
56.000,-4.360,
57.000,-4.510,
58.000,-4.650,
59.000,-4.800,
60.000,-4.950,
61.000,-5.090,
62.000,-5.240,
63.000,-5.400,
64.000,-5.550,
65.000,-5.700,
66.000,-5.860,
67.000,-6.020,
68.000,-6.180,
69.000,-6.340,
70.000,-6.500,
71.000,-6.670,
72.000,-6.840,
73.000,-7.010,
74.000,-7.180,
75.000,-7.350,
76.000,-7.530,
77.000,-7.700,
78.000,-7.870,
79.000,-8.040,
80.000,-8.210,
81.000,-8.390,
82.000,-8.560,
83.000,-8.740,
84.000,-8.910,
85.000,-9.090,
86.000,-9.270,
87.000,-9.450,
88.000,-9.630,
89.000,-9.810,
90.000,-9.990,
91.000,-10.170,
92.000,-10.350,
93.000,-10.540,
94.000,-10.730,
95.000,-10.920,
96.000,-11.110,
97.000,-11.300,
98.000,-11.490,
99.000,-11.670,
100.000,-11.850,
101.000,-12.020,
102.000,-12.200,
103.000,-12.360,
104.000,-12.530,
105.000,-12.700,
106.000,-12.870,
107.000,-13.030,
108.000,-13.200,
109.000,-13.360,
110.000,-13.530,
111.000,-13.690,
112.000,-13.860,
113.000,-14.030,
114.000,-14.210,
115.000,-14.390,
116.000,-14.570,
117.000,-14.750,
118.000,-14.930,
119.000,-15.100,
120.000,-15.270,
121.000,-15.430,
122.000,-15.580,
123.000,-15.740,
124.000,-15.900,
125.000,-16.070,
126.000,-16.250,
127.000,-16.430,
128.000,-16.630,
129.000,-16.820,
130.000,-17.000,
131.000,-17.170,
132.000,-17.340,
133.000,-17.490,
134.000,-17.640,
135.000,-17.800,
136.000,-17.970,
137.000,-18.160,
138.000,-18.360,
139.000,-18.560,
140.000,-18.770,
141.000,-18.970,
142.000,-19.160,
143.000,-19.320,
144.000,-19.470,
145.000,-19.600,
146.000,-19.730,
147.000,-19.870,
148.000,-20.000,
149.000,-20.140,
150.000,-20.290,
151.000,-20.430,
152.000,-20.560,
153.000,-20.660,
154.000,-20.750,
155.000,-20.820,
156.000,-20.860,
157.000,-20.900,
158.000,-20.940,
159.000,-20.980,
160.000,-21.020,
161.000,-21.050,
162.000,-21.090,
163.000,-21.110,
164.000,-21.110,
165.000,-21.110,
166.000,-21.090,
167.000,-21.070,
168.000,-21.050,
169.000,-21.030,
170.000,-21.010,
171.000,-20.990,
172.000,-20.970,
173.000,-20.950,
174.000,-20.930,
175.000,-20.910,
176.000,-20.890,
177.000,-20.880,
178.000,-20.870,
179.000,-20.870,
PATCUT:,EL
POLARI:,V/V
NUPOIN:,360
FSTLST:,-180,179
-180.000,-20.880,
-179.000,-20.970,
-178.000,-21.410,
-177.000,-22.210,
-176.000,-23.390,
-175.000,-25.020,
-174.000,-27.170,
-173.000,-29.950,
-172.000,-33.600,
-171.000,-38.550,
-170.000,-45.910,
-169.000,-56.070,
-168.000,-52.740,
-167.000,-52.850,
-166.000,-57.250,
-165.000,-50.520,
-164.000,-44.190,
-163.000,-40.440,
-162.000,-38.120,
-161.000,-36.760,
-160.000,-36.160,
-159.000,-36.200,
-158.000,-36.880,
-157.000,-38.200,
-156.000,-40.220,
-155.000,-43.010,
-154.000,-46.280,
-153.000,-48.500,
-152.000,-48.200,
-151.000,-47.120,
-150.000,-46.310,
-149.000,-45.570,
-148.000,-44.570,
-147.000,-43.410,
-146.000,-42.450,
-145.000,-42.010,
-144.000,-42.280,
-143.000,-43.470,
-142.000,-45.900,
-141.000,-50.030,
-140.000,-52.710,
-139.000,-48.360,
-138.000,-44.710,
-137.000,-42.590,
-136.000,-41.480,
-135.000,-40.950,
-134.000,-40.580,
-133.000,-39.910,
-132.000,-38.850,
-131.000,-37.700,
-130.000,-36.810,
-129.000,-36.410,
-128.000,-36.640,
-127.000,-37.640,
-126.000,-39.660,
-125.000,-43.320,
-124.000,-51.020,
-123.000,-57.060,
-122.000,-46.210,
-121.000,-42.360,
-120.000,-40.640,
-119.000,-40.190,
-118.000,-40.750,
-117.000,-42.360,
-116.000,-45.330,
-115.000,-50.930,
-114.000,-73.670,
-113.000,-52.950,
-112.000,-47.140,
-111.000,-44.170,
-110.000,-42.300,
-109.000,-40.980,
-108.000,-40.000,
-107.000,-39.290,
-106.000,-38.880,
-105.000,-38.790,
-104.000,-39.080,
-103.000,-39.790,
-102.000,-40.990,
-101.000,-42.700,
-100.000,-44.820,
-99.000,-46.450,
-98.000,-45.970,
-97.000,-43.830,
-96.000,-41.570,
-95.000,-39.660,
-94.000,-38.080,
-93.000,-36.750,
-92.000,-35.590,
-91.000,-34.570,
-90.000,-33.650,
-89.000,-32.840,
-88.000,-32.130,
-87.000,-31.540,
-86.000,-31.070,
-85.000,-30.730,
-84.000,-30.500,
-83.000,-30.360,
-82.000,-30.290,
-81.000,-30.240,
-80.000,-30.180,
-79.000,-30.100,
-78.000,-30.010,
-77.000,-29.910,
-76.000,-29.810,
-75.000,-29.720,
-74.000,-29.640,
-73.000,-29.570,
-72.000,-29.530,
-71.000,-29.540,
-70.000,-29.650,
-69.000,-29.920,
-68.000,-30.420,
-67.000,-31.240,
-66.000,-32.520,
-65.000,-34.480,
-64.000,-37.600,
-63.000,-43.420,
-62.000,-59.660,
-61.000,-42.410,
-60.000,-36.650,
-59.000,-33.330,
-58.000,-31.100,
-57.000,-29.520,
-56.000,-28.390,
-55.000,-27.640,
-54.000,-27.230,
-53.000,-27.180,
-52.000,-27.520,
-51.000,-28.300,
-50.000,-29.550,
-49.000,-31.120,
-48.000,-32.240,
-47.000,-31.630,
-46.000,-29.650,
-45.000,-27.590,
-44.000,-26.000,
-43.000,-24.960,
-42.000,-24.480,
-41.000,-24.590,
-40.000,-25.390,
-39.000,-27.140,
-38.000,-30.530,
-37.000,-38.560,
-36.000,-41.080,
-35.000,-30.290,
-34.000,-25.760,
-33.000,-23.170,
-32.000,-21.720,
-31.000,-21.170,
-30.000,-21.540,
-29.000,-23.020,
-28.000,-26.300,
-27.000,-34.010,
-26.000,-32.960,
-25.000,-24.700,
-24.000,-20.650,
-23.000,-18.380,
-22.000,-17.250,
-21.000,-17.090,
-20.000,-17.980,
-19.000,-20.300,
-18.000,-25.460,
-17.000,-40.650,
-16.000,-24.490,
-15.000,-18.820,
-14.000,-15.950,
-13.000,-14.570,
-12.000,-14.410,
-11.000,-15.650,
-10.000,-19.270,
-9.000,-30.870,
-8.000,-19.990,
-7.000,-12.510,
-6.000,-8.220,
-5.000,-5.300,
-4.000,-3.220,
-3.000,-1.740,
-2.000,-0.750,
-1.000,-0.180,
0.000,0.000,
1.000,-0.210,
2.000,-0.810,
3.000,-1.840,
4.000,-3.380,
5.000,-5.550,
6.000,-8.630,
7.000,-13.290,
8.000,-22.180,
9.000,-26.760,
10.000,-17.540,
11.000,-14.410,
12.000,-13.290,
13.000,-13.390,
14.000,-14.550,
15.000,-16.890,
16.000,-21.050,
17.000,-29.700,
18.000,-30.780,
19.000,-22.900,
20.000,-19.740,
21.000,-18.460,
22.000,-18.410,
23.000,-19.450,
24.000,-21.770,
25.000,-26.240,
26.000,-37.910,
27.000,-32.560,
28.000,-25.270,
29.000,-22.140,
30.000,-20.690,
31.000,-20.320,
32.000,-20.850,
33.000,-22.320,
34.000,-25.030,
35.000,-29.870,
36.000,-38.890,
37.000,-32.600,
38.000,-27.090,
39.000,-24.270,
40.000,-22.780,
41.000,-22.160,
42.000,-22.220,
43.000,-22.910,
44.000,-24.240,
45.000,-26.320,
46.000,-29.240,
47.000,-32.480,
48.000,-32.860,
49.000,-30.230,
50.000,-27.840,
51.000,-26.260,
52.000,-25.370,
53.000,-25.040,
54.000,-25.190,
55.000,-25.770,
56.000,-26.780,
57.000,-28.230,
58.000,-30.190,
59.000,-32.790,
60.000,-36.250,
61.000,-40.430,
62.000,-41.410,
63.000,-37.920,
64.000,-34.730,
65.000,-32.390,
66.000,-30.640,
67.000,-29.310,
68.000,-28.290,
69.000,-27.510,
70.000,-26.940,
71.000,-26.530,
72.000,-26.270,
73.000,-26.130,
74.000,-26.090,
75.000,-26.110,
76.000,-26.190,
77.000,-26.310,
78.000,-26.480,
79.000,-26.680,
80.000,-26.930,
81.000,-27.240,
82.000,-27.610,
83.000,-28.050,
84.000,-28.530,
85.000,-29.040,
86.000,-29.530,
87.000,-29.930,
88.000,-30.200,
89.000,-30.340,
90.000,-30.400,
91.000,-30.450,
92.000,-30.600,
93.000,-30.900,
94.000,-31.400,
95.000,-32.120,
96.000,-33.050,
97.000,-34.180,
98.000,-35.460,
99.000,-36.810,
100.000,-38.090,
101.000,-39.170,
102.000,-39.940,
103.000,-40.430,
104.000,-40.710,
105.000,-40.880,
106.000,-40.910,
107.000,-40.680,
108.000,-40.070,
109.000,-39.120,
110.000,-37.980,
111.000,-36.880,
112.000,-35.950,
113.000,-35.280,
114.000,-34.900,
115.000,-34.830,
116.000,-35.020,
117.000,-35.420,
118.000,-35.930,
119.000,-36.400,
120.000,-36.730,
121.000,-36.840,
122.000,-36.750,
123.000,-36.490,
124.000,-36.070,
125.000,-35.480,
126.000,-34.790,
127.000,-34.100,
128.000,-33.510,
129.000,-33.150,
130.000,-33.060,
131.000,-33.300,
132.000,-33.870,
133.000,-34.740,
134.000,-35.850,
135.000,-37.110,
136.000,-38.450,
137.000,-39.890,
138.000,-41.660,
139.000,-44.120,
140.000,-47.710,
141.000,-50.640,
142.000,-47.590,
143.000,-43.790,
144.000,-41.260,
145.000,-39.710,
146.000,-38.900,
147.000,-38.710,
148.000,-39.120,
149.000,-40.220,
150.000,-42.260,
151.000,-45.870,
152.000,-52.290,
153.000,-51.090,
154.000,-44.840,
155.000,-41.370,
156.000,-39.470,
157.000,-38.660,
158.000,-38.780,
159.000,-39.870,
160.000,-42.220,
161.000,-46.690,
162.000,-57.280,
163.000,-52.470,
164.000,-45.960,
165.000,-43.360,
166.000,-42.710,
167.000,-43.810,
168.000,-47.750,
169.000,-63.090,
170.000,-45.370,
171.000,-38.140,
172.000,-33.600,
173.000,-30.250,
174.000,-27.630,
175.000,-25.550,
176.000,-23.890,
177.000,-22.620,
178.000,-21.710,
179.000,-21.130,
ENDFIL:,EOF
