REVNUM:,NSMA WG16.99.050
REVDAT:,19990520
ANTMAN:,KATHREIN
MODNUM:,730376V01
DESCR1:,Panel
DESCR2:,15.32 dBd - Vertical polarization
DESCR3:,72.6 degree
DTDATA:,20090716
LOWFRQ:,806
HGHFRQ:,960
GUNITS:,DBD/DBR
MDGAIN:,15.3
AZWIDT:,72.6
ELWIDT:,7.6
ELTILT:,0.0
ANTLEN:,2.57
ANTWID:,0.26
ANTDEP:,0.10
ANTWGT:,12.0
PATTYP:,TYPICAL
NOFREQ:,1
PATFRE:,806.0
NUMCUT:,2
PATCUT:,AZ
POLARI:,V/V
NUPOIN:,360
FSTLST:,-180,179
-180.000,-25.860,
-179.000,-25.890,
-178.000,-25.920,
-177.000,-25.950,
-176.000,-25.970,
-175.000,-26.000,
-174.000,-26.030,
-173.000,-26.050,
-172.000,-26.080,
-171.000,-26.130,
-170.000,-26.190,
-169.000,-26.270,
-168.000,-26.370,
-167.000,-26.500,
-166.000,-26.630,
-165.000,-26.780,
-164.000,-26.930,
-163.000,-27.070,
-162.000,-27.200,
-161.000,-27.300,
-160.000,-27.380,
-159.000,-27.440,
-158.000,-27.470,
-157.000,-27.480,
-156.000,-27.470,
-155.000,-27.450,
-154.000,-27.400,
-153.000,-27.340,
-152.000,-27.260,
-151.000,-27.150,
-150.000,-27.040,
-149.000,-26.900,
-148.000,-26.760,
-147.000,-26.610,
-146.000,-26.450,
-145.000,-26.290,
-144.000,-26.130,
-143.000,-25.940,
-142.000,-25.750,
-141.000,-25.540,
-140.000,-25.300,
-139.000,-25.050,
-138.000,-24.800,
-137.000,-24.540,
-136.000,-24.280,
-135.000,-24.030,
-134.000,-23.800,
-133.000,-23.570,
-132.000,-23.350,
-131.000,-23.130,
-130.000,-22.920,
-129.000,-22.700,
-128.000,-22.490,
-127.000,-22.270,
-126.000,-22.050,
-125.000,-21.840,
-124.000,-21.640,
-123.000,-21.440,
-122.000,-21.250,
-121.000,-21.060,
-120.000,-20.870,
-119.000,-20.680,
-118.000,-20.490,
-117.000,-20.300,
-116.000,-20.110,
-115.000,-19.920,
-114.000,-19.740,
-113.000,-19.560,
-112.000,-19.380,
-111.000,-19.210,
-110.000,-19.040,
-109.000,-18.860,
-108.000,-18.680,
-107.000,-18.490,
-106.000,-18.290,
-105.000,-18.090,
-104.000,-17.890,
-103.000,-17.690,
-102.000,-17.490,
-101.000,-17.290,
-100.000,-17.090,
-99.000,-16.900,
-98.000,-16.710,
-97.000,-16.510,
-96.000,-16.300,
-95.000,-16.090,
-94.000,-15.880,
-93.000,-15.660,
-92.000,-15.440,
-91.000,-15.220,
-90.000,-15.000,
-89.000,-14.780,
-88.000,-14.560,
-87.000,-14.340,
-86.000,-14.120,
-85.000,-13.890,
-84.000,-13.650,
-83.000,-13.420,
-82.000,-13.180,
-81.000,-12.940,
-80.000,-12.700,
-79.000,-12.460,
-78.000,-12.220,
-77.000,-11.980,
-76.000,-11.750,
-75.000,-11.510,
-74.000,-11.270,
-73.000,-11.030,
-72.000,-10.790,
-71.000,-10.550,
-70.000,-10.300,
-69.000,-10.060,
-68.000,-9.810,
-67.000,-9.570,
-66.000,-9.330,
-65.000,-9.090,
-64.000,-8.850,
-63.000,-8.610,
-62.000,-8.370,
-61.000,-8.130,
-60.000,-7.890,
-59.000,-7.660,
-58.000,-7.430,
-57.000,-7.200,
-56.000,-6.980,
-55.000,-6.750,
-54.000,-6.530,
-53.000,-6.310,
-52.000,-6.090,
-51.000,-5.880,
-50.000,-5.670,
-49.000,-5.460,
-48.000,-5.250,
-47.000,-5.060,
-46.000,-4.860,
-45.000,-4.670,
-44.000,-4.480,
-43.000,-4.290,
-42.000,-4.100,
-41.000,-3.910,
-40.000,-3.730,
-39.000,-3.550,
-38.000,-3.370,
-37.000,-3.200,
-36.000,-3.040,
-35.000,-2.880,
-34.000,-2.720,
-33.000,-2.570,
-32.000,-2.430,
-31.000,-2.290,
-30.000,-2.150,
-29.000,-2.010,
-28.000,-1.870,
-27.000,-1.740,
-26.000,-1.610,
-25.000,-1.490,
-24.000,-1.370,
-23.000,-1.260,
-22.000,-1.160,
-21.000,-1.060,
-20.000,-0.970,
-19.000,-0.880,
-18.000,-0.790,
-17.000,-0.710,
-16.000,-0.620,
-15.000,-0.540,
-14.000,-0.470,
-13.000,-0.400,
-12.000,-0.330,
-11.000,-0.280,
-10.000,-0.230,
-9.000,-0.180,
-8.000,-0.140,
-7.000,-0.110,
-6.000,-0.080,
-5.000,-0.060,
-4.000,-0.040,
-3.000,-0.020,
-2.000,-0.010,
-1.000,0.000,
0.000,0.000,
1.000,0.000,
2.000,-0.010,
3.000,-0.010,
4.000,-0.030,
5.000,-0.050,
6.000,-0.070,
7.000,-0.100,
8.000,-0.130,
9.000,-0.170,
10.000,-0.210,
11.000,-0.260,
12.000,-0.310,
13.000,-0.370,
14.000,-0.430,
15.000,-0.500,
16.000,-0.570,
17.000,-0.650,
18.000,-0.730,
19.000,-0.810,
20.000,-0.900,
21.000,-0.990,
22.000,-1.090,
23.000,-1.190,
24.000,-1.300,
25.000,-1.410,
26.000,-1.530,
27.000,-1.650,
28.000,-1.770,
29.000,-1.900,
30.000,-2.030,
31.000,-2.160,
32.000,-2.300,
33.000,-2.440,
34.000,-2.580,
35.000,-2.730,
36.000,-2.880,
37.000,-3.030,
38.000,-3.190,
39.000,-3.350,
40.000,-3.520,
41.000,-3.700,
42.000,-3.880,
43.000,-4.060,
44.000,-4.250,
45.000,-4.440,
46.000,-4.630,
47.000,-4.820,
48.000,-5.020,
49.000,-5.210,
50.000,-5.400,
51.000,-5.600,
52.000,-5.800,
53.000,-6.000,
54.000,-6.210,
55.000,-6.420,
56.000,-6.640,
57.000,-6.860,
58.000,-7.080,
59.000,-7.300,
60.000,-7.530,
61.000,-7.750,
62.000,-7.970,
63.000,-8.200,
64.000,-8.420,
65.000,-8.650,
66.000,-8.870,
67.000,-9.100,
68.000,-9.340,
69.000,-9.570,
70.000,-9.810,
71.000,-10.040,
72.000,-10.280,
73.000,-10.510,
74.000,-10.740,
75.000,-10.960,
76.000,-11.190,
77.000,-11.420,
78.000,-11.640,
79.000,-11.870,
80.000,-12.110,
81.000,-12.340,
82.000,-12.580,
83.000,-12.810,
84.000,-13.040,
85.000,-13.270,
86.000,-13.490,
87.000,-13.700,
88.000,-13.910,
89.000,-14.110,
90.000,-14.310,
91.000,-14.510,
92.000,-14.720,
93.000,-14.920,
94.000,-15.130,
95.000,-15.330,
96.000,-15.540,
97.000,-15.730,
98.000,-15.930,
99.000,-16.120,
100.000,-16.300,
101.000,-16.480,
102.000,-16.670,
103.000,-16.850,
104.000,-17.030,
105.000,-17.200,
106.000,-17.380,
107.000,-17.540,
108.000,-17.700,
109.000,-17.840,
110.000,-17.980,
111.000,-18.120,
112.000,-18.250,
113.000,-18.390,
114.000,-18.540,
115.000,-18.700,
116.000,-18.870,
117.000,-19.040,
118.000,-19.220,
119.000,-19.390,
120.000,-19.560,
121.000,-19.720,
122.000,-19.870,
123.000,-20.010,
124.000,-20.150,
125.000,-20.300,
126.000,-20.450,
127.000,-20.600,
128.000,-20.770,
129.000,-20.950,
130.000,-21.130,
131.000,-21.310,
132.000,-21.500,
133.000,-21.700,
134.000,-21.890,
135.000,-22.090,
136.000,-22.290,
137.000,-22.490,
138.000,-22.700,
139.000,-22.910,
140.000,-23.110,
141.000,-23.320,
142.000,-23.520,
143.000,-23.720,
144.000,-23.920,
145.000,-24.130,
146.000,-24.340,
147.000,-24.550,
148.000,-24.770,
149.000,-24.990,
150.000,-25.200,
151.000,-25.390,
152.000,-25.560,
153.000,-25.710,
154.000,-25.840,
155.000,-25.960,
156.000,-26.060,
157.000,-26.160,
158.000,-26.250,
159.000,-26.330,
160.000,-26.390,
161.000,-26.440,
162.000,-26.470,
163.000,-26.470,
164.000,-26.460,
165.000,-26.430,
166.000,-26.400,
167.000,-26.360,
168.000,-26.320,
169.000,-26.280,
170.000,-26.240,
171.000,-26.190,
172.000,-26.140,
173.000,-26.080,
174.000,-26.020,
175.000,-25.960,
176.000,-25.910,
177.000,-25.870,
178.000,-25.840,
179.000,-25.840,
PATCUT:,EL
POLARI:,V/V
NUPOIN:,360
FSTLST:,-180,179
-180.000,-25.900,
-179.000,-26.420,
-178.000,-27.240,
-177.000,-28.330,
-176.000,-29.680,
-175.000,-31.280,
-174.000,-33.130,
-173.000,-35.240,
-172.000,-37.660,
-171.000,-40.380,
-170.000,-43.290,
-169.000,-45.920,
-168.000,-47.650,
-167.000,-48.780,
-166.000,-50.430,
-165.000,-53.800,
-164.000,-58.060,
-163.000,-53.510,
-162.000,-48.880,
-161.000,-46.410,
-160.000,-45.530,
-159.000,-46.120,
-158.000,-48.520,
-157.000,-54.230,
-156.000,-58.130,
-155.000,-49.490,
-154.000,-45.160,
-153.000,-42.840,
-152.000,-41.650,
-151.000,-41.240,
-150.000,-41.390,
-149.000,-41.950,
-148.000,-42.770,
-147.000,-43.670,
-146.000,-44.440,
-145.000,-44.830,
-144.000,-44.700,
-143.000,-44.140,
-142.000,-43.340,
-141.000,-42.430,
-140.000,-41.490,
-139.000,-40.590,
-138.000,-39.820,
-137.000,-39.240,
-136.000,-38.900,
-135.000,-38.800,
-134.000,-38.830,
-133.000,-38.810,
-132.000,-38.530,
-131.000,-37.920,
-130.000,-37.140,
-129.000,-36.400,
-128.000,-35.890,
-127.000,-35.730,
-126.000,-36.000,
-125.000,-36.800,
-124.000,-38.280,
-123.000,-40.690,
-122.000,-44.510,
-121.000,-49.550,
-120.000,-48.020,
-119.000,-43.750,
-118.000,-41.230,
-117.000,-40.030,
-116.000,-39.840,
-115.000,-40.530,
-114.000,-42.000,
-113.000,-43.870,
-112.000,-44.770,
-111.000,-43.560,
-110.000,-41.560,
-109.000,-39.910,
-108.000,-38.810,
-107.000,-38.220,
-106.000,-38.070,
-105.000,-38.330,
-104.000,-39.010,
-103.000,-40.140,
-102.000,-41.740,
-101.000,-43.810,
-100.000,-46.230,
-99.000,-48.540,
-98.000,-49.790,
-97.000,-49.440,
-96.000,-47.860,
-95.000,-45.580,
-94.000,-43.010,
-93.000,-40.510,
-92.000,-38.270,
-91.000,-36.370,
-90.000,-34.840,
-89.000,-33.680,
-88.000,-32.900,
-87.000,-32.460,
-86.000,-32.340,
-85.000,-32.480,
-84.000,-32.830,
-83.000,-33.290,
-82.000,-33.730,
-81.000,-34.030,
-80.000,-34.130,
-79.000,-33.980,
-78.000,-33.640,
-77.000,-33.190,
-76.000,-32.740,
-75.000,-32.330,
-74.000,-32.010,
-73.000,-31.780,
-72.000,-31.640,
-71.000,-31.580,
-70.000,-31.580,
-69.000,-31.640,
-68.000,-31.760,
-67.000,-31.950,
-66.000,-32.240,
-65.000,-32.620,
-64.000,-33.090,
-63.000,-33.540,
-62.000,-33.730,
-61.000,-33.430,
-60.000,-32.620,
-59.000,-31.490,
-58.000,-30.310,
-57.000,-29.200,
-56.000,-28.250,
-55.000,-27.480,
-54.000,-26.900,
-53.000,-26.560,
-52.000,-26.500,
-51.000,-26.790,
-50.000,-27.520,
-49.000,-28.870,
-48.000,-31.110,
-47.000,-34.630,
-46.000,-37.560,
-45.000,-33.780,
-44.000,-29.400,
-43.000,-26.360,
-42.000,-24.300,
-41.000,-22.970,
-40.000,-22.250,
-39.000,-22.120,
-38.000,-22.610,
-37.000,-23.850,
-36.000,-26.140,
-35.000,-30.310,
-34.000,-38.890,
-33.000,-34.840,
-32.000,-28.290,
-31.000,-24.980,
-30.000,-23.220,
-29.000,-22.510,
-28.000,-22.720,
-27.000,-23.890,
-26.000,-26.240,
-25.000,-30.220,
-24.000,-34.100,
-23.000,-31.010,
-22.000,-27.640,
-21.000,-26.090,
-20.000,-25.930,
-19.000,-26.330,
-18.000,-25.080,
-17.000,-21.700,
-16.000,-18.320,
-15.000,-15.730,
-14.000,-13.970,
-13.000,-13.020,
-12.000,-12.920,
-11.000,-13.860,
-10.000,-16.400,
-9.000,-22.010,
-8.000,-21.530,
-7.000,-13.680,
-6.000,-8.950,
-5.000,-5.780,
-4.000,-3.540,
-3.000,-1.950,
-2.000,-0.870,
-1.000,-0.230,
0.000,0.000,
1.000,-0.150,
2.000,-0.690,
3.000,-1.640,
4.000,-3.050,
5.000,-5.000,
6.000,-7.640,
7.000,-11.260,
8.000,-16.450,
9.000,-23.320,
10.000,-22.320,
11.000,-19.020,
12.000,-17.950,
13.000,-18.610,
14.000,-21.050,
15.000,-26.230,
16.000,-30.910,
17.000,-23.710,
18.000,-19.480,
19.000,-17.250,
20.000,-16.220,
21.000,-16.100,
22.000,-16.810,
23.000,-18.430,
24.000,-21.260,
25.000,-26.300,
26.000,-36.870,
27.000,-29.660,
28.000,-23.970,
29.000,-21.210,
30.000,-19.830,
31.000,-19.330,
32.000,-19.510,
33.000,-20.310,
34.000,-21.720,
35.000,-23.820,
36.000,-26.720,
37.000,-30.330,
38.000,-32.750,
39.000,-31.500,
40.000,-29.410,
41.000,-28.090,
42.000,-27.590,
43.000,-27.800,
44.000,-28.670,
45.000,-30.170,
46.000,-32.210,
47.000,-34.220,
48.000,-34.690,
49.000,-33.220,
50.000,-31.310,
51.000,-29.740,
52.000,-28.630,
53.000,-27.930,
54.000,-27.580,
55.000,-27.540,
56.000,-27.800,
57.000,-28.380,
58.000,-29.280,
59.000,-30.530,
60.000,-32.130,
61.000,-33.950,
62.000,-35.520,
63.000,-36.040,
64.000,-35.290,
65.000,-33.990,
66.000,-32.720,
67.000,-31.650,
68.000,-30.790,
69.000,-30.100,
70.000,-29.530,
71.000,-29.070,
72.000,-28.720,
73.000,-28.490,
74.000,-28.380,
75.000,-28.400,
76.000,-28.540,
77.000,-28.770,
78.000,-29.050,
79.000,-29.330,
80.000,-29.570,
81.000,-29.750,
82.000,-29.900,
83.000,-30.070,
84.000,-30.320,
85.000,-30.710,
86.000,-31.280,
87.000,-32.040,
88.000,-32.950,
89.000,-33.920,
90.000,-34.810,
91.000,-35.460,
92.000,-35.810,
93.000,-35.930,
94.000,-35.960,
95.000,-36.040,
96.000,-36.260,
97.000,-36.640,
98.000,-37.140,
99.000,-37.670,
100.000,-38.110,
101.000,-38.410,
102.000,-38.610,
103.000,-38.830,
104.000,-39.150,
105.000,-39.630,
106.000,-40.230,
107.000,-40.890,
108.000,-41.530,
109.000,-42.070,
110.000,-42.470,
111.000,-42.760,
112.000,-43.030,
113.000,-43.440,
114.000,-44.160,
115.000,-45.370,
116.000,-47.270,
117.000,-50.080,
118.000,-53.910,
119.000,-57.120,
120.000,-56.360,
121.000,-54.820,
122.000,-54.750,
123.000,-56.700,
124.000,-61.280,
125.000,-59.690,
126.000,-53.070,
127.000,-48.800,
128.000,-45.940,
129.000,-43.920,
130.000,-42.450,
131.000,-41.360,
132.000,-40.550,
133.000,-39.950,
134.000,-39.500,
135.000,-39.170,
136.000,-38.910,
137.000,-38.740,
138.000,-38.710,
139.000,-38.950,
140.000,-39.660,
141.000,-41.070,
142.000,-43.540,
143.000,-47.520,
144.000,-50.760,
145.000,-47.490,
146.000,-44.280,
147.000,-42.800,
148.000,-42.760,
149.000,-44.060,
150.000,-46.310,
151.000,-46.900,
152.000,-44.220,
153.000,-41.560,
154.000,-39.960,
155.000,-39.320,
156.000,-39.400,
157.000,-39.860,
158.000,-40.120,
159.000,-39.800,
160.000,-39.170,
161.000,-38.830,
162.000,-39.190,
163.000,-40.590,
164.000,-43.570,
165.000,-49.650,
166.000,-55.920,
167.000,-47.470,
168.000,-43.870,
169.000,-42.620,
170.000,-42.290,
171.000,-40.820,
172.000,-37.500,
173.000,-34.010,
174.000,-31.160,
175.000,-29.010,
176.000,-27.470,
177.000,-26.450,
178.000,-25.880,
179.000,-25.710,
ENDFIL:,EOF
