REVNUM:,NSMA WG16.99.050
REVDAT:,19990520
ANTMAN:,KATHREIN
MODNUM:,734314
DESCR1:,Panel
DESCR2:,16 dBd - Vertical polarization
DESCR3:,65 degree
DTDATA:,19930218
LOWFRQ:,1710
HGHFRQ:,1900
GUNITS:,DBD/DBR
MDGAIN:,16.0
AZWIDT:,65.0
ELWIDT:,6.5
ELTILT:,0.0
ANTLEN:,1.30
ANTWID:,0.15
ANTDEP:,0.04
ANTWGT:,4.6
PATTYP:,TYPICAL
NOFREQ:,1
PATFRE:,1880.0
NUMCUT:,2
PATCUT:,AZ
POLARI:,V/V
NUPOIN:,360
FSTLST:,-180,179
-180.000,-28.780,
-179.000,-28.850,
-178.000,-28.960,
-177.000,-29.010,
-176.000,-29.150,
-175.000,-29.260,
-174.000,-29.420,
-173.000,-29.650,
-172.000,-29.910,
-171.000,-30.150,
-170.000,-30.400,
-169.000,-30.780,
-168.000,-31.190,
-167.000,-31.570,
-166.000,-31.880,
-165.000,-32.270,
-164.000,-32.590,
-163.000,-32.820,
-162.000,-33.130,
-161.000,-33.210,
-160.000,-33.270,
-159.000,-33.140,
-158.000,-33.050,
-157.000,-32.940,
-156.000,-32.720,
-155.000,-32.450,
-154.000,-32.010,
-153.000,-31.720,
-152.000,-31.370,
-151.000,-30.890,
-150.000,-30.540,
-149.000,-30.150,
-148.000,-29.800,
-147.000,-29.430,
-146.000,-29.130,
-145.000,-28.860,
-144.000,-28.540,
-143.000,-28.300,
-142.000,-28.060,
-141.000,-27.820,
-140.000,-27.570,
-139.000,-27.310,
-138.000,-27.060,
-137.000,-26.890,
-136.000,-26.710,
-135.000,-26.520,
-134.000,-26.350,
-133.000,-26.160,
-132.000,-25.930,
-131.000,-25.810,
-130.000,-25.680,
-129.000,-25.570,
-128.000,-25.420,
-127.000,-25.340,
-126.000,-25.170,
-125.000,-25.090,
-124.000,-24.990,
-123.000,-24.920,
-122.000,-24.820,
-121.000,-24.760,
-120.000,-24.680,
-119.000,-24.620,
-118.000,-24.540,
-117.000,-24.420,
-116.000,-24.380,
-115.000,-24.310,
-114.000,-24.200,
-113.000,-24.110,
-112.000,-24.020,
-111.000,-23.910,
-110.000,-23.800,
-109.000,-23.710,
-108.000,-23.610,
-107.000,-23.490,
-106.000,-23.350,
-105.000,-23.230,
-104.000,-23.080,
-103.000,-22.890,
-102.000,-22.740,
-101.000,-22.590,
-100.000,-22.400,
-99.000,-22.230,
-98.000,-22.040,
-97.000,-21.830,
-96.000,-21.630,
-95.000,-21.430,
-94.000,-21.230,
-93.000,-21.010,
-92.000,-20.760,
-91.000,-20.540,
-90.000,-20.270,
-89.000,-20.020,
-88.000,-19.750,
-87.000,-19.490,
-86.000,-19.220,
-85.000,-18.930,
-84.000,-18.630,
-83.000,-18.320,
-82.000,-18.040,
-81.000,-17.740,
-80.000,-17.420,
-79.000,-17.100,
-78.000,-16.790,
-77.000,-16.480,
-76.000,-16.160,
-75.000,-15.800,
-74.000,-15.500,
-73.000,-14.860,
-72.000,-14.530,
-71.000,-14.210,
-70.000,-13.860,
-69.000,-13.540,
-68.000,-13.200,
-67.000,-12.880,
-66.000,-12.550,
-65.000,-12.230,
-64.000,-11.880,
-63.000,-11.560,
-62.000,-11.230,
-61.000,-10.890,
-60.000,-10.570,
-59.000,-10.280,
-58.000,-9.950,
-57.000,-9.650,
-56.000,-9.320,
-55.000,-9.020,
-54.000,-8.730,
-53.000,-8.420,
-52.000,-8.120,
-51.000,-7.820,
-50.000,-7.560,
-49.000,-7.260,
-48.000,-6.990,
-47.000,-6.710,
-46.000,-6.430,
-45.000,-6.160,
-44.000,-5.910,
-43.000,-5.640,
-42.000,-5.390,
-41.000,-5.150,
-40.000,-4.910,
-39.000,-4.670,
-38.000,-4.440,
-37.000,-4.210,
-36.000,-4.010,
-35.000,-3.790,
-34.000,-3.570,
-33.000,-3.360,
-32.000,-3.160,
-31.000,-2.980,
-30.000,-2.790,
-29.000,-2.590,
-28.000,-2.410,
-27.000,-2.250,
-26.000,-2.090,
-25.000,-1.920,
-24.000,-1.770,
-23.000,-1.620,
-22.000,-1.500,
-21.000,-1.360,
-20.000,-1.220,
-19.000,-1.110,
-18.000,-1.000,
-17.000,-0.890,
-16.000,-0.790,
-15.000,-0.700,
-14.000,-0.600,
-13.000,-0.530,
-12.000,-0.430,
-11.000,-0.360,
-10.000,-0.290,
-9.000,-0.220,
-8.000,-0.170,
-7.000,-0.130,
-6.000,-0.080,
-5.000,-0.060,
-4.000,-0.030,
-3.000,-0.010,
-2.000,-0.010,
-1.000,0.000,
0.000,0.000,
1.000,-0.010,
2.000,-0.010,
3.000,-0.030,
4.000,-0.050,
5.000,-0.080,
6.000,-0.120,
7.000,-0.150,
8.000,-0.220,
9.000,-0.260,
10.000,-0.320,
11.000,-0.400,
12.000,-0.460,
13.000,-0.540,
14.000,-0.640,
15.000,-0.740,
16.000,-0.840,
17.000,-0.940,
18.000,-1.060,
19.000,-1.170,
20.000,-1.300,
21.000,-1.420,
22.000,-1.550,
23.000,-1.690,
24.000,-1.830,
25.000,-1.990,
26.000,-2.150,
27.000,-2.320,
28.000,-2.490,
29.000,-2.680,
30.000,-2.860,
31.000,-3.050,
32.000,-3.250,
33.000,-3.450,
34.000,-3.650,
35.000,-3.880,
36.000,-4.090,
37.000,-4.320,
38.000,-4.550,
39.000,-4.780,
40.000,-5.020,
41.000,-5.270,
42.000,-5.510,
43.000,-5.770,
44.000,-6.030,
45.000,-6.290,
46.000,-6.560,
47.000,-6.850,
48.000,-7.100,
49.000,-7.390,
50.000,-7.680,
51.000,-7.970,
52.000,-8.250,
53.000,-8.550,
54.000,-8.870,
55.000,-9.160,
56.000,-9.470,
57.000,-9.790,
58.000,-10.100,
59.000,-10.410,
60.000,-10.740,
61.000,-11.070,
62.000,-11.410,
63.000,-11.750,
64.000,-12.060,
65.000,-12.390,
66.000,-12.730,
67.000,-13.080,
68.000,-13.410,
69.000,-13.730,
70.000,-14.090,
71.000,-14.420,
72.000,-15.060,
73.000,-15.070,
74.000,-15.700,
75.000,-16.060,
76.000,-16.380,
77.000,-16.720,
78.000,-17.050,
79.000,-17.370,
80.000,-17.710,
81.000,-18.010,
82.000,-18.350,
83.000,-18.670,
84.000,-18.960,
85.000,-19.270,
86.000,-19.570,
87.000,-19.880,
88.000,-20.160,
89.000,-20.440,
90.000,-20.700,
91.000,-20.980,
92.000,-21.240,
93.000,-21.480,
94.000,-21.730,
95.000,-21.980,
96.000,-22.240,
97.000,-22.460,
98.000,-22.680,
99.000,-22.900,
100.000,-23.110,
101.000,-23.330,
102.000,-23.520,
103.000,-23.700,
104.000,-23.900,
105.000,-24.080,
106.000,-24.260,
107.000,-24.400,
108.000,-24.580,
109.000,-24.740,
110.000,-24.940,
111.000,-25.070,
112.000,-25.240,
113.000,-25.370,
114.000,-25.550,
115.000,-25.690,
116.000,-25.810,
117.000,-25.890,
118.000,-26.060,
119.000,-26.210,
120.000,-26.350,
121.000,-26.470,
122.000,-26.640,
123.000,-26.850,
124.000,-26.930,
125.000,-27.120,
126.000,-27.340,
127.000,-27.460,
128.000,-27.670,
129.000,-27.870,
130.000,-28.040,
131.000,-28.270,
132.000,-28.540,
133.000,-28.750,
134.000,-29.030,
135.000,-29.310,
136.000,-29.540,
137.000,-29.810,
138.000,-30.160,
139.000,-30.520,
140.000,-30.810,
141.000,-31.200,
142.000,-31.490,
143.000,-31.880,
144.000,-32.230,
145.000,-32.630,
146.000,-33.000,
147.000,-33.420,
148.000,-33.800,
149.000,-34.110,
150.000,-34.470,
151.000,-34.670,
152.000,-34.800,
153.000,-34.920,
154.000,-34.860,
155.000,-34.810,
156.000,-34.640,
157.000,-34.340,
158.000,-34.160,
159.000,-33.820,
160.000,-33.600,
161.000,-33.180,
162.000,-32.840,
163.000,-32.530,
164.000,-32.140,
165.000,-31.850,
166.000,-31.490,
167.000,-31.190,
168.000,-30.920,
169.000,-30.670,
170.000,-30.370,
171.000,-30.060,
172.000,-29.840,
173.000,-29.730,
174.000,-29.460,
175.000,-29.270,
176.000,-29.120,
177.000,-29.000,
178.000,-28.930,
179.000,-28.890,
PATCUT:,EL
POLARI:,V/V
NUPOIN:,360
FSTLST:,-180,179
-180.000,-30.140,
-179.000,-30.100,
-178.000,-30.730,
-177.000,-32.190,
-176.000,-34.200,
-175.000,-37.150,
-174.000,-41.090,
-173.000,-42.640,
-172.000,-39.950,
-171.000,-38.840,
-170.000,-39.220,
-169.000,-42.040,
-168.000,-46.150,
-167.000,-50.310,
-166.000,-45.880,
-165.000,-44.120,
-164.000,-45.840,
-163.000,-51.240,
-162.000,-48.590,
-161.000,-42.340,
-160.000,-39.550,
-159.000,-38.300,
-158.000,-39.080,
-157.000,-41.590,
-156.000,-46.140,
-155.000,-58.610,
-154.000,-48.310,
-153.000,-43.940,
-152.000,-42.060,
-151.000,-41.510,
-150.000,-41.670,
-149.000,-41.050,
-148.000,-40.990,
-147.000,-41.170,
-146.000,-41.970,
-145.000,-44.880,
-144.000,-52.070,
-143.000,-59.600,
-142.000,-45.690,
-141.000,-41.650,
-140.000,-39.030,
-139.000,-37.540,
-138.000,-37.120,
-137.000,-37.340,
-136.000,-38.600,
-135.000,-40.450,
-134.000,-43.550,
-133.000,-44.650,
-132.000,-40.970,
-131.000,-37.720,
-130.000,-36.070,
-129.000,-35.120,
-128.000,-34.610,
-127.000,-34.730,
-126.000,-35.640,
-125.000,-36.660,
-124.000,-37.580,
-123.000,-37.930,
-122.000,-36.830,
-121.000,-35.610,
-120.000,-34.460,
-119.000,-33.150,
-118.000,-32.180,
-117.000,-31.780,
-116.000,-32.130,
-115.000,-32.320,
-114.000,-32.470,
-113.000,-32.720,
-112.000,-33.260,
-111.000,-33.090,
-110.000,-32.570,
-109.000,-31.740,
-108.000,-31.010,
-107.000,-30.200,
-106.000,-29.710,
-105.000,-29.370,
-104.000,-29.120,
-103.000,-28.970,
-102.000,-29.050,
-101.000,-29.090,
-100.000,-29.200,
-99.000,-29.240,
-98.000,-29.260,
-97.000,-29.370,
-96.000,-29.110,
-95.000,-29.140,
-94.000,-28.950,
-93.000,-28.790,
-92.000,-28.590,
-91.000,-28.180,
-90.000,-27.930,
-89.000,-27.540,
-88.000,-27.010,
-87.000,-26.650,
-86.000,-26.110,
-85.000,-25.800,
-84.000,-25.450,
-83.000,-25.170,
-82.000,-24.960,
-81.000,-24.900,
-80.000,-24.940,
-79.000,-25.000,
-78.000,-25.240,
-77.000,-25.450,
-76.000,-25.850,
-75.000,-26.450,
-74.000,-27.110,
-73.000,-28.070,
-72.000,-29.040,
-71.000,-30.230,
-70.000,-31.310,
-69.000,-32.420,
-68.000,-33.640,
-67.000,-34.450,
-66.000,-34.780,
-65.000,-34.920,
-64.000,-34.190,
-63.000,-32.690,
-62.000,-30.930,
-61.000,-29.040,
-60.000,-27.200,
-59.000,-25.810,
-58.000,-24.630,
-57.000,-23.880,
-56.000,-23.550,
-55.000,-23.720,
-54.000,-24.430,
-53.000,-25.910,
-52.000,-28.640,
-51.000,-34.510,
-50.000,-52.390,
-49.000,-33.080,
-48.000,-27.130,
-47.000,-23.960,
-46.000,-22.130,
-45.000,-21.210,
-44.000,-21.060,
-43.000,-21.620,
-42.000,-23.030,
-41.000,-25.930,
-40.000,-31.220,
-39.000,-38.420,
-38.000,-29.500,
-37.000,-24.630,
-36.000,-21.940,
-35.000,-20.370,
-34.000,-19.760,
-33.000,-19.870,
-32.000,-20.720,
-31.000,-22.500,
-30.000,-25.710,
-29.000,-32.020,
-28.000,-44.540,
-27.000,-32.590,
-26.000,-28.410,
-25.000,-27.490,
-24.000,-28.940,
-23.000,-34.290,
-22.000,-34.260,
-21.000,-26.150,
-20.000,-21.930,
-19.000,-19.830,
-18.000,-19.240,
-17.000,-20.250,
-16.000,-23.240,
-15.000,-29.760,
-14.000,-25.210,
-13.000,-19.160,
-12.000,-16.050,
-11.000,-14.810,
-10.000,-15.280,
-9.000,-18.250,
-8.000,-28.150,
-7.000,-19.050,
-6.000,-11.420,
-5.000,-6.770,
-4.000,-3.880,
-3.000,-2.310,
-2.000,-0.950,
-1.000,-0.230,
0.000,0.000,
1.000,-0.320,
2.000,-1.210,
3.000,-2.740,
4.000,-5.170,
5.000,-8.780,
6.000,-15.130,
7.000,-30.710,
8.000,-19.540,
9.000,-14.620,
10.000,-13.070,
11.000,-13.230,
12.000,-14.900,
13.000,-18.430,
14.000,-26.050,
15.000,-33.180,
16.000,-22.490,
17.000,-19.370,
18.000,-18.350,
19.000,-18.870,
20.000,-20.580,
21.000,-23.650,
22.000,-26.870,
23.000,-26.610,
24.000,-24.690,
25.000,-23.650,
26.000,-23.860,
27.000,-25.140,
28.000,-27.390,
29.000,-29.300,
30.000,-28.910,
31.000,-26.790,
32.000,-25.250,
33.000,-24.400,
34.000,-24.250,
35.000,-24.760,
36.000,-25.520,
37.000,-26.430,
38.000,-27.190,
39.000,-27.200,
40.000,-26.630,
41.000,-26.270,
42.000,-26.080,
43.000,-26.330,
44.000,-27.380,
45.000,-29.390,
46.000,-32.870,
47.000,-40.100,
48.000,-41.050,
49.000,-33.430,
50.000,-29.310,
51.000,-27.090,
52.000,-25.640,
53.000,-25.060,
54.000,-24.920,
55.000,-25.380,
56.000,-26.220,
57.000,-27.660,
58.000,-28.810,
59.000,-30.170,
60.000,-30.170,
61.000,-29.330,
62.000,-28.220,
63.000,-27.130,
64.000,-26.320,
65.000,-25.810,
66.000,-25.610,
67.000,-25.720,
68.000,-26.080,
69.000,-26.790,
70.000,-27.760,
71.000,-29.090,
72.000,-30.920,
73.000,-33.390,
74.000,-36.630,
75.000,-42.000,
76.000,-46.960,
77.000,-43.330,
78.000,-38.770,
79.000,-35.880,
80.000,-34.080,
81.000,-32.480,
82.000,-31.820,
83.000,-31.030,
84.000,-30.670,
85.000,-30.540,
86.000,-30.520,
87.000,-30.470,
88.000,-30.440,
89.000,-30.480,
90.000,-30.520,
91.000,-30.700,
92.000,-30.900,
93.000,-30.960,
94.000,-31.230,
95.000,-31.350,
96.000,-31.650,
97.000,-31.930,
98.000,-32.110,
99.000,-32.440,
100.000,-32.850,
101.000,-33.630,
102.000,-33.990,
103.000,-34.430,
104.000,-34.370,
105.000,-34.490,
106.000,-34.040,
107.000,-33.670,
108.000,-32.980,
109.000,-32.320,
110.000,-31.860,
111.000,-31.780,
112.000,-31.750,
113.000,-31.990,
114.000,-32.400,
115.000,-33.340,
116.000,-34.830,
117.000,-36.290,
118.000,-38.440,
119.000,-40.120,
120.000,-40.610,
121.000,-39.560,
122.000,-38.320,
123.000,-37.120,
124.000,-36.590,
125.000,-36.410,
126.000,-37.210,
127.000,-38.140,
128.000,-39.460,
129.000,-40.340,
130.000,-40.480,
131.000,-39.450,
132.000,-38.840,
133.000,-38.620,
134.000,-38.910,
135.000,-40.360,
136.000,-42.400,
137.000,-46.400,
138.000,-53.020,
139.000,-57.910,
140.000,-53.420,
141.000,-49.230,
142.000,-50.000,
143.000,-49.920,
144.000,-54.310,
145.000,-56.380,
146.000,-52.130,
147.000,-46.120,
148.000,-42.060,
149.000,-39.050,
150.000,-37.630,
151.000,-37.210,
152.000,-37.680,
153.000,-39.410,
154.000,-43.250,
155.000,-46.510,
156.000,-44.890,
157.000,-42.300,
158.000,-41.820,
159.000,-43.390,
160.000,-47.860,
161.000,-46.980,
162.000,-41.440,
163.000,-38.540,
164.000,-37.710,
165.000,-38.270,
166.000,-40.190,
167.000,-41.600,
168.000,-40.610,
169.000,-38.330,
170.000,-37.690,
171.000,-37.740,
172.000,-39.800,
173.000,-43.510,
174.000,-44.160,
175.000,-39.200,
176.000,-35.790,
177.000,-33.310,
178.000,-31.850,
179.000,-30.710,
ENDFIL:,EOF
