REVNUM:,NSMA WG16.99.050
REVDAT:,19990520
ANTMAN:,KATHREIN
MODNUM:,736416
DESCR1:,Panel
DESCR2:,10.5 dBd - Vertical polarization
DESCR3:,63 degree
DTDATA:,19951124
LOWFRQ:,1850
HGHFRQ:,1990
GUNITS:,DBD/DBR
MDGAIN:,10.5
AZWIDT:,63.0
ELWIDT:,24.0
ELTILT:,0.0
ANTLEN:,0.35
ANTWID:,0.15
ANTDEP:,0.04
ANTWGT:,1.7
PATTYP:,TYPICAL
NOFREQ:,1
PATFRE:,1910.0
NUMCUT:,2
PATCUT:,AZ
POLARI:,V/V
NUPOIN:,360
FSTLST:,-180,179
-180.000,-33.610,
-179.000,-33.850,
-178.000,-34.060,
-177.000,-34.210,
-176.000,-34.380,
-175.000,-34.390,
-174.000,-34.480,
-173.000,-34.530,
-172.000,-34.580,
-171.000,-34.460,
-170.000,-34.260,
-169.000,-33.910,
-168.000,-33.680,
-167.000,-33.380,
-166.000,-33.040,
-165.000,-32.850,
-164.000,-32.320,
-163.000,-31.920,
-162.000,-31.480,
-161.000,-31.020,
-160.000,-30.660,
-159.000,-30.330,
-158.000,-29.940,
-157.000,-29.410,
-156.000,-29.090,
-155.000,-28.720,
-154.000,-28.340,
-153.000,-28.050,
-152.000,-27.730,
-151.000,-27.440,
-150.000,-27.070,
-149.000,-26.860,
-148.000,-26.610,
-147.000,-26.370,
-146.000,-26.090,
-145.000,-25.830,
-144.000,-25.620,
-143.000,-25.440,
-142.000,-25.280,
-141.000,-25.080,
-140.000,-24.900,
-139.000,-24.720,
-138.000,-24.610,
-137.000,-24.500,
-136.000,-24.380,
-135.000,-24.260,
-134.000,-24.120,
-133.000,-24.130,
-132.000,-24.060,
-131.000,-23.960,
-130.000,-23.920,
-129.000,-23.840,
-128.000,-23.840,
-127.000,-23.770,
-126.000,-23.770,
-125.000,-23.750,
-124.000,-23.710,
-123.000,-23.740,
-122.000,-23.700,
-121.000,-23.730,
-120.000,-23.700,
-119.000,-23.740,
-118.000,-23.740,
-117.000,-23.720,
-116.000,-23.700,
-115.000,-23.750,
-114.000,-23.760,
-113.000,-23.740,
-112.000,-23.770,
-111.000,-23.710,
-110.000,-23.740,
-109.000,-23.720,
-108.000,-23.730,
-107.000,-23.690,
-106.000,-23.590,
-105.000,-23.550,
-104.000,-23.480,
-103.000,-23.410,
-102.000,-23.340,
-101.000,-23.200,
-100.000,-23.040,
-99.000,-22.950,
-98.000,-22.750,
-97.000,-22.590,
-96.000,-22.390,
-95.000,-22.140,
-94.000,-21.920,
-93.000,-21.720,
-92.000,-21.460,
-91.000,-21.210,
-90.000,-20.940,
-89.000,-20.660,
-88.000,-20.360,
-87.000,-20.060,
-86.000,-19.770,
-85.000,-19.450,
-84.000,-19.130,
-83.000,-18.830,
-82.000,-18.480,
-81.000,-18.180,
-80.000,-17.800,
-79.000,-17.480,
-78.000,-17.130,
-77.000,-16.810,
-76.000,-16.460,
-75.000,-16.130,
-74.000,-15.790,
-73.000,-15.440,
-72.000,-15.120,
-71.000,-14.780,
-70.000,-14.440,
-69.000,-14.110,
-68.000,-13.750,
-67.000,-13.410,
-66.000,-13.080,
-65.000,-12.740,
-64.000,-12.420,
-63.000,-12.090,
-62.000,-11.760,
-61.000,-11.450,
-60.000,-11.100,
-59.000,-10.760,
-58.000,-10.460,
-57.000,-10.130,
-56.000,-9.830,
-55.000,-9.490,
-54.000,-9.160,
-53.000,-8.850,
-52.000,-8.550,
-51.000,-8.260,
-50.000,-7.940,
-49.000,-7.650,
-48.000,-7.360,
-47.000,-7.060,
-46.000,-6.780,
-45.000,-6.500,
-44.000,-6.220,
-43.000,-5.940,
-42.000,-5.710,
-41.000,-5.410,
-40.000,-5.170,
-39.000,-4.920,
-38.000,-4.670,
-37.000,-4.430,
-36.000,-4.180,
-35.000,-3.940,
-34.000,-3.720,
-33.000,-3.510,
-32.000,-3.300,
-31.000,-3.090,
-30.000,-2.900,
-29.000,-2.710,
-28.000,-2.510,
-27.000,-2.340,
-26.000,-2.170,
-25.000,-1.990,
-24.000,-1.830,
-23.000,-1.680,
-22.000,-1.550,
-21.000,-1.390,
-20.000,-1.270,
-19.000,-1.130,
-18.000,-1.030,
-17.000,-0.910,
-16.000,-0.790,
-15.000,-0.710,
-14.000,-0.610,
-13.000,-0.530,
-12.000,-0.440,
-11.000,-0.380,
-10.000,-0.310,
-9.000,-0.240,
-8.000,-0.200,
-7.000,-0.160,
-6.000,-0.100,
-5.000,-0.070,
-4.000,-0.050,
-3.000,-0.020,
-2.000,-0.020,
-1.000,-0.010,
0.000,0.000,
1.000,-0.010,
2.000,-0.030,
3.000,-0.040,
4.000,-0.060,
5.000,-0.100,
6.000,-0.120,
7.000,-0.180,
8.000,-0.220,
9.000,-0.280,
10.000,-0.360,
11.000,-0.410,
12.000,-0.490,
13.000,-0.580,
14.000,-0.660,
15.000,-0.750,
16.000,-0.850,
17.000,-0.970,
18.000,-1.080,
19.000,-1.190,
20.000,-1.320,
21.000,-1.450,
22.000,-1.590,
23.000,-1.730,
24.000,-1.880,
25.000,-2.040,
26.000,-2.190,
27.000,-2.360,
28.000,-2.530,
29.000,-2.690,
30.000,-2.880,
31.000,-3.060,
32.000,-3.250,
33.000,-3.450,
34.000,-3.650,
35.000,-3.860,
36.000,-4.080,
37.000,-4.300,
38.000,-4.520,
39.000,-4.740,
40.000,-4.970,
41.000,-5.210,
42.000,-5.450,
43.000,-5.690,
44.000,-5.940,
45.000,-6.190,
46.000,-6.480,
47.000,-6.730,
48.000,-7.000,
49.000,-7.260,
50.000,-7.550,
51.000,-7.830,
52.000,-8.110,
53.000,-8.400,
54.000,-8.700,
55.000,-8.980,
56.000,-9.290,
57.000,-9.590,
58.000,-9.900,
59.000,-10.210,
60.000,-10.540,
61.000,-10.860,
62.000,-11.180,
63.000,-11.510,
64.000,-11.850,
65.000,-12.210,
66.000,-12.530,
67.000,-12.870,
68.000,-13.240,
69.000,-13.570,
70.000,-13.930,
71.000,-14.300,
72.000,-14.620,
73.000,-14.970,
74.000,-15.330,
75.000,-15.680,
76.000,-16.020,
77.000,-16.350,
78.000,-16.680,
79.000,-17.010,
80.000,-17.350,
81.000,-17.650,
82.000,-17.950,
83.000,-18.240,
84.000,-18.530,
85.000,-18.780,
86.000,-19.040,
87.000,-19.310,
88.000,-19.550,
89.000,-19.770,
90.000,-20.010,
91.000,-20.240,
92.000,-20.440,
93.000,-20.650,
94.000,-20.840,
95.000,-21.030,
96.000,-21.220,
97.000,-21.390,
98.000,-21.570,
99.000,-21.770,
100.000,-21.900,
101.000,-22.130,
102.000,-22.270,
103.000,-22.420,
104.000,-22.560,
105.000,-22.710,
106.000,-22.840,
107.000,-23.000,
108.000,-23.110,
109.000,-23.240,
110.000,-23.350,
111.000,-23.460,
112.000,-23.540,
113.000,-23.600,
114.000,-23.700,
115.000,-23.770,
116.000,-23.810,
117.000,-23.860,
118.000,-23.910,
119.000,-23.930,
120.000,-23.970,
121.000,-24.010,
122.000,-24.050,
123.000,-24.070,
124.000,-24.120,
125.000,-24.140,
126.000,-24.210,
127.000,-24.280,
128.000,-24.430,
129.000,-24.520,
130.000,-24.640,
131.000,-24.770,
132.000,-24.910,
133.000,-25.100,
134.000,-25.250,
135.000,-25.500,
136.000,-25.730,
137.000,-26.000,
138.000,-26.260,
139.000,-26.550,
140.000,-26.860,
141.000,-27.200,
142.000,-27.560,
143.000,-27.850,
144.000,-28.210,
145.000,-28.530,
146.000,-28.870,
147.000,-29.230,
148.000,-29.510,
149.000,-29.820,
150.000,-30.110,
151.000,-30.310,
152.000,-30.530,
153.000,-30.710,
154.000,-30.880,
155.000,-30.970,
156.000,-31.050,
157.000,-31.120,
158.000,-31.180,
159.000,-31.180,
160.000,-31.140,
161.000,-31.120,
162.000,-31.290,
163.000,-31.310,
164.000,-31.330,
165.000,-31.340,
166.000,-31.430,
167.000,-31.510,
168.000,-31.550,
169.000,-31.650,
170.000,-31.670,
171.000,-31.850,
172.000,-31.980,
173.000,-32.200,
174.000,-32.320,
175.000,-32.580,
176.000,-32.730,
177.000,-32.920,
178.000,-33.200,
179.000,-33.410,
PATCUT:,EL
POLARI:,V/V
NUPOIN:,360
FSTLST:,-180,179
-180.000,-28.890,
-179.000,-30.150,
-178.000,-31.830,
-177.000,-33.840,
-176.000,-35.720,
-175.000,-35.970,
-174.000,-34.650,
-173.000,-33.090,
-172.000,-32.090,
-171.000,-31.640,
-170.000,-31.710,
-169.000,-32.380,
-168.000,-33.600,
-167.000,-35.360,
-166.000,-37.140,
-165.000,-37.290,
-164.000,-35.620,
-163.000,-33.500,
-162.000,-31.830,
-161.000,-30.760,
-160.000,-30.260,
-159.000,-30.170,
-158.000,-30.590,
-157.000,-31.500,
-156.000,-33.020,
-155.000,-34.940,
-154.000,-36.880,
-153.000,-37.020,
-152.000,-35.190,
-151.000,-33.080,
-150.000,-31.210,
-149.000,-30.010,
-148.000,-29.220,
-147.000,-28.800,
-146.000,-28.820,
-145.000,-29.210,
-144.000,-29.980,
-143.000,-31.090,
-142.000,-32.860,
-141.000,-35.150,
-140.000,-37.790,
-139.000,-39.190,
-138.000,-38.240,
-137.000,-36.000,
-136.000,-34.040,
-135.000,-32.630,
-134.000,-31.680,
-133.000,-31.220,
-132.000,-30.980,
-131.000,-31.160,
-130.000,-31.670,
-129.000,-32.370,
-128.000,-33.300,
-127.000,-34.480,
-126.000,-35.290,
-125.000,-35.350,
-124.000,-34.300,
-123.000,-32.820,
-122.000,-31.240,
-121.000,-29.890,
-120.000,-28.600,
-119.000,-27.610,
-118.000,-26.720,
-117.000,-26.000,
-116.000,-25.380,
-115.000,-24.890,
-114.000,-24.500,
-113.000,-24.160,
-112.000,-23.930,
-111.000,-23.720,
-110.000,-23.530,
-109.000,-23.400,
-108.000,-23.270,
-107.000,-23.130,
-106.000,-23.010,
-105.000,-22.860,
-104.000,-22.720,
-103.000,-22.580,
-102.000,-22.390,
-101.000,-22.220,
-100.000,-22.030,
-99.000,-21.840,
-98.000,-21.620,
-97.000,-21.430,
-96.000,-21.210,
-95.000,-21.010,
-94.000,-20.780,
-93.000,-20.560,
-92.000,-20.340,
-91.000,-20.120,
-90.000,-19.920,
-89.000,-19.730,
-88.000,-19.520,
-87.000,-19.290,
-86.000,-19.090,
-85.000,-18.890,
-84.000,-18.680,
-83.000,-18.480,
-82.000,-18.260,
-81.000,-18.070,
-80.000,-17.860,
-79.000,-17.640,
-78.000,-17.430,
-77.000,-17.200,
-76.000,-16.980,
-75.000,-16.750,
-74.000,-16.510,
-73.000,-16.270,
-72.000,-16.020,
-71.000,-15.780,
-70.000,-15.530,
-69.000,-15.280,
-68.000,-15.010,
-67.000,-14.760,
-66.000,-14.510,
-65.000,-14.280,
-64.000,-14.030,
-63.000,-13.810,
-62.000,-13.570,
-61.000,-13.350,
-60.000,-13.140,
-59.000,-12.910,
-58.000,-12.730,
-57.000,-12.530,
-56.000,-12.360,
-55.000,-12.190,
-54.000,-12.030,
-53.000,-11.910,
-52.000,-11.780,
-51.000,-11.690,
-50.000,-11.630,
-49.000,-11.580,
-48.000,-11.560,
-47.000,-11.560,
-46.000,-11.610,
-45.000,-11.680,
-44.000,-11.800,
-43.000,-11.980,
-42.000,-12.210,
-41.000,-12.500,
-40.000,-12.880,
-39.000,-13.340,
-38.000,-13.920,
-37.000,-14.660,
-36.000,-15.530,
-35.000,-16.680,
-34.000,-18.120,
-33.000,-20.040,
-32.000,-22.670,
-31.000,-26.080,
-30.000,-28.330,
-29.000,-25.500,
-28.000,-21.670,
-27.000,-18.530,
-26.000,-16.100,
-25.000,-14.100,
-24.000,-12.390,
-23.000,-10.990,
-22.000,-9.740,
-21.000,-8.640,
-20.000,-7.680,
-19.000,-6.810,
-18.000,-6.040,
-17.000,-5.330,
-16.000,-4.680,
-15.000,-4.100,
-14.000,-3.530,
-13.000,-3.060,
-12.000,-2.590,
-11.000,-2.180,
-10.000,-1.810,
-9.000,-1.470,
-8.000,-1.170,
-7.000,-0.900,
-6.000,-0.670,
-5.000,-0.480,
-4.000,-0.300,
-3.000,-0.190,
-2.000,-0.100,
-1.000,-0.040,
0.000,0.000,
1.000,-0.020,
2.000,-0.080,
3.000,-0.170,
4.000,-0.280,
5.000,-0.440,
6.000,-0.630,
7.000,-0.860,
8.000,-1.130,
9.000,-1.450,
10.000,-1.810,
11.000,-2.190,
12.000,-2.600,
13.000,-3.090,
14.000,-3.610,
15.000,-4.200,
16.000,-4.820,
17.000,-5.500,
18.000,-6.290,
19.000,-7.100,
20.000,-8.020,
21.000,-9.040,
22.000,-10.170,
23.000,-11.440,
24.000,-12.860,
25.000,-14.520,
26.000,-16.410,
27.000,-18.770,
28.000,-21.760,
29.000,-25.850,
30.000,-30.860,
31.000,-30.910,
32.000,-26.480,
33.000,-23.100,
34.000,-20.730,
35.000,-19.040,
36.000,-17.710,
37.000,-16.640,
38.000,-15.860,
39.000,-15.150,
40.000,-14.580,
41.000,-14.130,
42.000,-13.720,
43.000,-13.380,
44.000,-13.110,
45.000,-12.820,
46.000,-12.600,
47.000,-12.410,
48.000,-12.220,
49.000,-12.100,
50.000,-11.940,
51.000,-11.820,
52.000,-11.720,
53.000,-11.620,
54.000,-11.550,
55.000,-11.490,
56.000,-11.470,
57.000,-11.460,
58.000,-11.460,
59.000,-11.490,
60.000,-11.540,
61.000,-11.610,
62.000,-11.710,
63.000,-11.810,
64.000,-11.960,
65.000,-12.120,
66.000,-12.290,
67.000,-12.490,
68.000,-12.700,
69.000,-12.930,
70.000,-13.180,
71.000,-13.450,
72.000,-13.730,
73.000,-14.030,
74.000,-14.330,
75.000,-14.660,
76.000,-14.980,
77.000,-15.320,
78.000,-15.660,
79.000,-15.990,
80.000,-16.310,
81.000,-16.640,
82.000,-17.000,
83.000,-17.310,
84.000,-17.610,
85.000,-17.910,
86.000,-18.230,
87.000,-18.520,
88.000,-18.790,
89.000,-19.100,
90.000,-19.360,
91.000,-19.630,
92.000,-19.870,
93.000,-20.100,
94.000,-20.340,
95.000,-20.590,
96.000,-20.820,
97.000,-21.060,
98.000,-21.290,
99.000,-21.550,
100.000,-21.800,
101.000,-22.080,
102.000,-22.360,
103.000,-22.680,
104.000,-23.050,
105.000,-23.450,
106.000,-23.960,
107.000,-24.460,
108.000,-25.150,
109.000,-25.860,
110.000,-26.680,
111.000,-27.640,
112.000,-28.810,
113.000,-30.130,
114.000,-31.520,
115.000,-32.940,
116.000,-33.890,
117.000,-34.160,
118.000,-33.420,
119.000,-32.300,
120.000,-31.030,
121.000,-29.910,
122.000,-28.970,
123.000,-28.190,
124.000,-27.720,
125.000,-27.410,
126.000,-27.340,
127.000,-27.470,
128.000,-27.880,
129.000,-28.570,
130.000,-29.530,
131.000,-30.980,
132.000,-32.940,
133.000,-35.920,
134.000,-40.770,
135.000,-47.930,
136.000,-43.120,
137.000,-37.400,
138.000,-34.120,
139.000,-31.980,
140.000,-30.620,
141.000,-29.640,
142.000,-29.180,
143.000,-28.900,
144.000,-28.980,
145.000,-29.320,
146.000,-29.800,
147.000,-30.480,
148.000,-31.110,
149.000,-31.560,
150.000,-31.880,
151.000,-31.970,
152.000,-31.940,
153.000,-32.030,
154.000,-32.340,
155.000,-33.070,
156.000,-34.120,
157.000,-35.510,
158.000,-36.510,
159.000,-36.400,
160.000,-34.620,
161.000,-32.530,
162.000,-30.820,
163.000,-29.390,
164.000,-28.490,
165.000,-28.010,
166.000,-27.930,
167.000,-28.360,
168.000,-29.200,
169.000,-30.490,
170.000,-32.240,
171.000,-34.130,
172.000,-34.780,
173.000,-33.560,
174.000,-31.690,
175.000,-30.140,
176.000,-28.840,
177.000,-28.230,
178.000,-27.930,
179.000,-28.190,
ENDFIL:,EOF
