REVNUM:,NSMA WG16.99.050
REVDAT:,19990520
ANTMAN:,KATHREIN
MODNUM:,736352
DESCR1:,Omni
DESCR2:,9 dBd - Vertical polarization
DESCR3:,360 degree
DTDATA:,19950322
LOWFRQ:,870
HGHFRQ:,960
GUNITS:,DBD/DBR
MDGAIN:,9.0
AZWIDT:,360
ELWIDT:,7.0
ELTILT:,0.0
ANTLEN:,3.23
ANTWID:,0.05
ANTDEP:,0.05
ANTWGT:,8.5
PATTYP:,TYPICAL
NOFREQ:,1
PATFRE:,902.5
NUMCUT:,2
PATCUT:,AZ
POLARI:,V/V
NUPOIN:,360
FSTLST:,-180,179
-180.000,0.000,
-179.000,0.000,
-178.000,0.000,
-177.000,0.000,
-176.000,0.000,
-175.000,0.000,
-174.000,0.000,
-173.000,0.000,
-172.000,0.000,
-171.000,0.000,
-170.000,0.000,
-169.000,0.000,
-168.000,0.000,
-167.000,0.000,
-166.000,0.000,
-165.000,0.000,
-164.000,0.000,
-163.000,0.000,
-162.000,0.000,
-161.000,0.000,
-160.000,0.000,
-159.000,0.000,
-158.000,0.000,
-157.000,0.000,
-156.000,0.000,
-155.000,0.000,
-154.000,0.000,
-153.000,0.000,
-152.000,0.000,
-151.000,0.000,
-150.000,0.000,
-149.000,0.000,
-148.000,0.000,
-147.000,0.000,
-146.000,0.000,
-145.000,0.000,
-144.000,0.000,
-143.000,0.000,
-142.000,0.000,
-141.000,0.000,
-140.000,0.000,
-139.000,0.000,
-138.000,0.000,
-137.000,0.000,
-136.000,0.000,
-135.000,0.000,
-134.000,0.000,
-133.000,0.000,
-132.000,0.000,
-131.000,0.000,
-130.000,0.000,
-129.000,0.000,
-128.000,0.000,
-127.000,0.000,
-126.000,0.000,
-125.000,0.000,
-124.000,0.000,
-123.000,0.000,
-122.000,0.000,
-121.000,0.000,
-120.000,0.000,
-119.000,0.000,
-118.000,0.000,
-117.000,0.000,
-116.000,0.000,
-115.000,0.000,
-114.000,0.000,
-113.000,0.000,
-112.000,0.000,
-111.000,0.000,
-110.000,0.000,
-109.000,0.000,
-108.000,0.000,
-107.000,0.000,
-106.000,0.000,
-105.000,0.000,
-104.000,0.000,
-103.000,0.000,
-102.000,0.000,
-101.000,0.000,
-100.000,0.000,
-99.000,0.000,
-98.000,0.000,
-97.000,0.000,
-96.000,0.000,
-95.000,0.000,
-94.000,0.000,
-93.000,0.000,
-92.000,0.000,
-91.000,0.000,
-90.000,0.000,
-89.000,0.000,
-88.000,0.000,
-87.000,0.000,
-86.000,0.000,
-85.000,0.000,
-84.000,0.000,
-83.000,0.000,
-82.000,0.000,
-81.000,0.000,
-80.000,0.000,
-79.000,0.000,
-78.000,0.000,
-77.000,0.000,
-76.000,0.000,
-75.000,0.000,
-74.000,0.000,
-73.000,0.000,
-72.000,0.000,
-71.000,0.000,
-70.000,0.000,
-69.000,0.000,
-68.000,0.000,
-67.000,0.000,
-66.000,0.000,
-65.000,0.000,
-64.000,0.000,
-63.000,0.000,
-62.000,0.000,
-61.000,0.000,
-60.000,0.000,
-59.000,0.000,
-58.000,0.000,
-57.000,0.000,
-56.000,0.000,
-55.000,0.000,
-54.000,0.000,
-53.000,0.000,
-52.000,0.000,
-51.000,0.000,
-50.000,0.000,
-49.000,0.000,
-48.000,0.000,
-47.000,0.000,
-46.000,0.000,
-45.000,0.000,
-44.000,0.000,
-43.000,0.000,
-42.000,0.000,
-41.000,0.000,
-40.000,0.000,
-39.000,0.000,
-38.000,0.000,
-37.000,0.000,
-36.000,0.000,
-35.000,0.000,
-34.000,0.000,
-33.000,0.000,
-32.000,0.000,
-31.000,0.000,
-30.000,0.000,
-29.000,0.000,
-28.000,0.000,
-27.000,0.000,
-26.000,0.000,
-25.000,0.000,
-24.000,0.000,
-23.000,0.000,
-22.000,0.000,
-21.000,0.000,
-20.000,0.000,
-19.000,0.000,
-18.000,0.000,
-17.000,0.000,
-16.000,0.000,
-15.000,0.000,
-14.000,0.000,
-13.000,0.000,
-12.000,0.000,
-11.000,0.000,
-10.000,0.000,
-9.000,0.000,
-8.000,0.000,
-7.000,0.000,
-6.000,0.000,
-5.000,0.000,
-4.000,0.000,
-3.000,0.000,
-2.000,0.000,
-1.000,0.000,
0.000,0.000,
1.000,0.000,
2.000,0.000,
3.000,0.000,
4.000,0.000,
5.000,0.000,
6.000,0.000,
7.000,0.000,
8.000,0.000,
9.000,0.000,
10.000,0.000,
11.000,0.000,
12.000,0.000,
13.000,0.000,
14.000,0.000,
15.000,0.000,
16.000,0.000,
17.000,0.000,
18.000,0.000,
19.000,0.000,
20.000,0.000,
21.000,0.000,
22.000,0.000,
23.000,0.000,
24.000,0.000,
25.000,0.000,
26.000,0.000,
27.000,0.000,
28.000,0.000,
29.000,0.000,
30.000,0.000,
31.000,0.000,
32.000,0.000,
33.000,0.000,
34.000,0.000,
35.000,0.000,
36.000,0.000,
37.000,0.000,
38.000,0.000,
39.000,0.000,
40.000,0.000,
41.000,0.000,
42.000,0.000,
43.000,0.000,
44.000,0.000,
45.000,0.000,
46.000,0.000,
47.000,0.000,
48.000,0.000,
49.000,0.000,
50.000,0.000,
51.000,0.000,
52.000,0.000,
53.000,0.000,
54.000,0.000,
55.000,0.000,
56.000,0.000,
57.000,0.000,
58.000,0.000,
59.000,0.000,
60.000,0.000,
61.000,0.000,
62.000,0.000,
63.000,0.000,
64.000,0.000,
65.000,0.000,
66.000,0.000,
67.000,0.000,
68.000,0.000,
69.000,0.000,
70.000,0.000,
71.000,0.000,
72.000,0.000,
73.000,0.000,
74.000,0.000,
75.000,0.000,
76.000,0.000,
77.000,0.000,
78.000,0.000,
79.000,0.000,
80.000,0.000,
81.000,0.000,
82.000,0.000,
83.000,0.000,
84.000,0.000,
85.000,0.000,
86.000,0.000,
87.000,0.000,
88.000,0.000,
89.000,0.000,
90.000,0.000,
91.000,0.000,
92.000,0.000,
93.000,0.000,
94.000,0.000,
95.000,0.000,
96.000,0.000,
97.000,0.000,
98.000,0.000,
99.000,0.000,
100.000,0.000,
101.000,0.000,
102.000,0.000,
103.000,0.000,
104.000,0.000,
105.000,0.000,
106.000,0.000,
107.000,0.000,
108.000,0.000,
109.000,0.000,
110.000,0.000,
111.000,0.000,
112.000,0.000,
113.000,0.000,
114.000,0.000,
115.000,0.000,
116.000,0.000,
117.000,0.000,
118.000,0.000,
119.000,0.000,
120.000,0.000,
121.000,0.000,
122.000,0.000,
123.000,0.000,
124.000,0.000,
125.000,0.000,
126.000,0.000,
127.000,0.000,
128.000,0.000,
129.000,0.000,
130.000,0.000,
131.000,0.000,
132.000,0.000,
133.000,0.000,
134.000,0.000,
135.000,0.000,
136.000,0.000,
137.000,0.000,
138.000,0.000,
139.000,0.000,
140.000,0.000,
141.000,0.000,
142.000,0.000,
143.000,0.000,
144.000,0.000,
145.000,0.000,
146.000,0.000,
147.000,0.000,
148.000,0.000,
149.000,0.000,
150.000,0.000,
151.000,0.000,
152.000,0.000,
153.000,0.000,
154.000,0.000,
155.000,0.000,
156.000,0.000,
157.000,0.000,
158.000,0.000,
159.000,0.000,
160.000,0.000,
161.000,0.000,
162.000,0.000,
163.000,0.000,
164.000,0.000,
165.000,0.000,
166.000,0.000,
167.000,0.000,
168.000,0.000,
169.000,0.000,
170.000,0.000,
171.000,0.000,
172.000,0.000,
173.000,0.000,
174.000,0.000,
175.000,0.000,
176.000,0.000,
177.000,0.000,
178.000,0.000,
179.000,0.000,
PATCUT:,EL
POLARI:,V/V
NUPOIN:,360
FSTLST:,-180,179
-180.000,0.000,
-179.000,-0.240,
-178.000,-1.060,
-177.000,-2.350,
-176.000,-4.380,
-175.000,-7.180,
-174.000,-10.670,
-173.000,-15.130,
-172.000,-19.320,
-171.000,-21.020,
-170.000,-22.010,
-169.000,-23.650,
-168.000,-24.720,
-167.000,-22.100,
-166.000,-19.360,
-165.000,-17.740,
-164.000,-17.280,
-163.000,-18.010,
-162.000,-19.920,
-161.000,-23.470,
-160.000,-30.040,
-159.000,-39.390,
-158.000,-31.530,
-157.000,-29.110,
-156.000,-30.320,
-155.000,-40.800,
-154.000,-42.090,
-153.000,-33.260,
-152.000,-25.960,
-151.000,-22.480,
-150.000,-20.870,
-149.000,-20.360,
-148.000,-20.820,
-147.000,-22.170,
-146.000,-24.670,
-145.000,-28.380,
-144.000,-31.930,
-143.000,-31.600,
-142.000,-30.060,
-141.000,-29.890,
-140.000,-31.940,
-139.000,-38.450,
-138.000,-42.930,
-137.000,-31.310,
-136.000,-26.370,
-135.000,-23.750,
-134.000,-22.150,
-133.000,-21.450,
-132.000,-21.490,
-131.000,-22.250,
-130.000,-23.730,
-129.000,-26.130,
-128.000,-29.920,
-127.000,-36.110,
-126.000,-36.750,
-125.000,-31.190,
-124.000,-28.270,
-123.000,-26.650,
-122.000,-25.770,
-121.000,-25.490,
-120.000,-25.870,
-119.000,-26.910,
-118.000,-28.250,
-117.000,-29.740,
-116.000,-31.360,
-115.000,-31.810,
-114.000,-30.710,
-113.000,-29.320,
-112.000,-27.880,
-111.000,-26.850,
-110.000,-26.140,
-109.000,-25.560,
-108.000,-25.300,
-107.000,-25.210,
-106.000,-25.290,
-105.000,-25.580,
-104.000,-25.920,
-103.000,-26.380,
-102.000,-26.960,
-101.000,-27.640,
-100.000,-28.390,
-99.000,-29.120,
-98.000,-29.990,
-97.000,-31.120,
-96.000,-32.290,
-95.000,-33.450,
-94.000,-34.690,
-93.000,-35.640,
-92.000,-37.150,
-91.000,-38.130,
-90.000,-39.140,
-89.000,-38.130,
-88.000,-37.150,
-87.000,-35.640,
-86.000,-34.690,
-85.000,-33.450,
-84.000,-32.290,
-83.000,-31.120,
-82.000,-29.990,
-81.000,-29.120,
-80.000,-28.390,
-79.000,-27.640,
-78.000,-26.960,
-77.000,-26.380,
-76.000,-25.920,
-75.000,-25.580,
-74.000,-25.290,
-73.000,-25.210,
-72.000,-25.300,
-71.000,-25.560,
-70.000,-26.140,
-69.000,-26.850,
-68.000,-27.880,
-67.000,-29.320,
-66.000,-30.710,
-65.000,-31.810,
-64.000,-31.360,
-63.000,-29.740,
-62.000,-28.250,
-61.000,-26.910,
-60.000,-25.870,
-59.000,-25.490,
-58.000,-25.770,
-57.000,-26.650,
-56.000,-28.270,
-55.000,-31.190,
-54.000,-36.750,
-53.000,-36.110,
-52.000,-29.920,
-51.000,-26.130,
-50.000,-23.730,
-49.000,-22.250,
-48.000,-21.490,
-47.000,-21.450,
-46.000,-22.150,
-45.000,-23.750,
-44.000,-26.370,
-43.000,-31.310,
-42.000,-42.930,
-41.000,-38.450,
-40.000,-31.940,
-39.000,-29.890,
-38.000,-30.060,
-37.000,-31.600,
-36.000,-31.930,
-35.000,-28.380,
-34.000,-24.670,
-33.000,-22.170,
-32.000,-20.820,
-31.000,-20.360,
-30.000,-20.870,
-29.000,-22.480,
-28.000,-25.960,
-27.000,-33.260,
-26.000,-42.090,
-25.000,-40.800,
-24.000,-30.320,
-23.000,-29.110,
-22.000,-31.530,
-21.000,-39.390,
-20.000,-30.040,
-19.000,-23.470,
-18.000,-19.920,
-17.000,-18.010,
-16.000,-17.280,
-15.000,-17.740,
-14.000,-19.360,
-13.000,-22.100,
-12.000,-24.720,
-11.000,-23.650,
-10.000,-22.010,
-9.000,-21.020,
-8.000,-19.320,
-7.000,-15.130,
-6.000,-10.670,
-5.000,-7.180,
-4.000,-4.380,
-3.000,-2.350,
-2.000,-1.060,
-1.000,-0.240,
0.000,0.000,
1.000,-0.290,
2.000,-1.130,
3.000,-2.560,
4.000,-4.610,
5.000,-7.810,
6.000,-11.690,
7.000,-17.240,
8.000,-21.780,
9.000,-21.650,
10.000,-21.700,
11.000,-23.760,
12.000,-26.860,
13.000,-25.220,
14.000,-22.040,
15.000,-19.990,
16.000,-19.630,
17.000,-20.700,
18.000,-23.380,
19.000,-28.390,
20.000,-34.990,
21.000,-29.360,
22.000,-26.190,
23.000,-25.210,
24.000,-26.300,
25.000,-29.570,
26.000,-36.470,
27.000,-32.600,
28.000,-27.110,
29.000,-24.140,
30.000,-22.790,
31.000,-22.530,
32.000,-23.390,
33.000,-25.130,
34.000,-27.910,
35.000,-31.910,
36.000,-33.390,
37.000,-30.790,
38.000,-29.000,
39.000,-28.370,
40.000,-29.110,
41.000,-31.020,
42.000,-34.330,
43.000,-35.940,
44.000,-32.270,
45.000,-28.750,
46.000,-26.740,
47.000,-25.660,
48.000,-25.310,
49.000,-25.940,
50.000,-27.130,
51.000,-29.420,
52.000,-33.250,
53.000,-40.370,
54.000,-38.890,
55.000,-33.030,
56.000,-29.840,
57.000,-27.910,
58.000,-26.920,
59.000,-26.400,
60.000,-26.560,
61.000,-27.100,
62.000,-27.760,
63.000,-28.580,
64.000,-29.410,
65.000,-29.710,
66.000,-29.480,
67.000,-29.000,
68.000,-28.240,
69.000,-27.690,
70.000,-27.360,
71.000,-27.030,
72.000,-27.030,
73.000,-27.230,
74.000,-27.570,
75.000,-28.100,
76.000,-28.610,
77.000,-29.490,
78.000,-30.270,
79.000,-31.240,
80.000,-32.310,
81.000,-33.460,
82.000,-35.020,
83.000,-36.280,
84.000,-37.750,
85.000,-39.200,
86.000,-41.190,
87.000,-43.420,
88.000,-45.540,
89.000,-48.010,
90.000,-46.780,
91.000,-48.010,
92.000,-45.540,
93.000,-43.420,
94.000,-41.190,
95.000,-39.200,
96.000,-37.750,
97.000,-36.280,
98.000,-35.020,
99.000,-33.460,
100.000,-32.310,
101.000,-31.240,
102.000,-30.270,
103.000,-29.490,
104.000,-28.610,
105.000,-28.100,
106.000,-27.570,
107.000,-27.230,
108.000,-27.030,
109.000,-27.030,
110.000,-27.360,
111.000,-27.690,
112.000,-28.240,
113.000,-29.000,
114.000,-29.480,
115.000,-29.710,
116.000,-29.410,
117.000,-28.580,
118.000,-27.760,
119.000,-27.100,
120.000,-26.560,
121.000,-26.400,
122.000,-26.920,
123.000,-27.910,
124.000,-29.840,
125.000,-33.030,
126.000,-38.890,
127.000,-40.370,
128.000,-33.250,
129.000,-29.420,
130.000,-27.130,
131.000,-25.940,
132.000,-25.310,
133.000,-25.660,
134.000,-26.740,
135.000,-28.750,
136.000,-32.270,
137.000,-35.940,
138.000,-34.330,
139.000,-31.020,
140.000,-29.110,
141.000,-28.370,
142.000,-29.000,
143.000,-30.790,
144.000,-33.390,
145.000,-31.910,
146.000,-27.910,
147.000,-25.130,
148.000,-23.390,
149.000,-22.530,
150.000,-22.790,
151.000,-24.140,
152.000,-27.110,
153.000,-32.600,
154.000,-36.470,
155.000,-29.570,
156.000,-26.300,
157.000,-25.210,
158.000,-26.190,
159.000,-29.360,
160.000,-34.990,
161.000,-28.390,
162.000,-23.380,
163.000,-20.700,
164.000,-19.630,
165.000,-19.990,
166.000,-22.040,
167.000,-25.220,
168.000,-26.860,
169.000,-23.760,
170.000,-21.700,
171.000,-21.650,
172.000,-21.780,
173.000,-17.240,
174.000,-11.690,
175.000,-7.810,
176.000,-4.610,
177.000,-2.560,
178.000,-1.130,
179.000,-0.290,
ENDFIL:,EOF
