REVNUM:,NSMA WG16.99.050
REVDAT:,19990520
ANTMAN:,KATHREIN
MODNUM:,738049
DESCR1:,Panel
DESCR2:,11 dBd - Vertical polarization
DESCR3:,110 degree
DTDATA:,19950828
LOWFRQ:,440
HGHFRQ:,470
GUNITS:,DBD/DBR
MDGAIN:,11.0
AZWIDT:,110
ELWIDT:,15.0
ELTILT:,0.0
ANTLEN:,2.58
ANTWID:,0.25
ANTDEP:,0.10
ANTWGT:,12.0
PATTYP:,TYPICAL
NOFREQ:,1
PATFRE:,460.0
NUMCUT:,2
PATCUT:,AZ
POLARI:,V/V
NUPOIN:,360
FSTLST:,-180,179
-180.000,-18.480,
-179.000,-18.510,
-178.000,-18.480,
-177.000,-18.450,
-176.000,-18.470,
-175.000,-18.510,
-174.000,-18.510,
-173.000,-18.500,
-172.000,-18.510,
-171.000,-18.530,
-170.000,-18.600,
-169.000,-18.630,
-168.000,-18.680,
-167.000,-18.760,
-166.000,-18.790,
-165.000,-18.840,
-164.000,-18.900,
-163.000,-18.900,
-162.000,-18.930,
-161.000,-18.950,
-160.000,-18.940,
-159.000,-18.950,
-158.000,-18.990,
-157.000,-19.010,
-156.000,-19.040,
-155.000,-19.060,
-154.000,-19.060,
-153.000,-19.040,
-152.000,-19.030,
-151.000,-19.020,
-150.000,-18.980,
-149.000,-18.920,
-148.000,-18.880,
-147.000,-18.790,
-146.000,-18.700,
-145.000,-18.560,
-144.000,-18.440,
-143.000,-18.320,
-142.000,-18.210,
-141.000,-18.030,
-140.000,-17.840,
-139.000,-17.660,
-138.000,-17.460,
-137.000,-17.270,
-136.000,-17.060,
-135.000,-16.850,
-134.000,-16.640,
-133.000,-16.420,
-132.000,-16.200,
-131.000,-15.980,
-130.000,-15.760,
-129.000,-15.550,
-128.000,-15.320,
-127.000,-15.100,
-126.000,-14.890,
-125.000,-14.660,
-124.000,-14.440,
-123.000,-14.230,
-122.000,-14.000,
-121.000,-13.770,
-120.000,-13.550,
-119.000,-13.320,
-118.000,-13.100,
-117.000,-12.880,
-116.000,-12.670,
-115.000,-12.460,
-114.000,-12.250,
-113.000,-12.050,
-112.000,-11.840,
-111.000,-11.650,
-110.000,-11.440,
-109.000,-11.240,
-108.000,-11.040,
-107.000,-10.840,
-106.000,-10.650,
-105.000,-10.470,
-104.000,-10.270,
-103.000,-10.090,
-102.000,-9.910,
-101.000,-9.720,
-100.000,-9.540,
-99.000,-9.360,
-98.000,-9.190,
-97.000,-9.020,
-96.000,-8.850,
-95.000,-8.680,
-94.000,-8.520,
-93.000,-8.360,
-92.000,-8.190,
-91.000,-8.030,
-90.000,-7.870,
-89.000,-7.720,
-88.000,-7.560,
-87.000,-7.400,
-86.000,-7.250,
-85.000,-7.090,
-84.000,-6.940,
-83.000,-6.800,
-82.000,-6.620,
-81.000,-6.480,
-80.000,-6.340,
-79.000,-6.200,
-78.000,-6.050,
-77.000,-5.910,
-76.000,-5.770,
-75.000,-5.630,
-74.000,-5.500,
-73.000,-5.360,
-72.000,-5.230,
-71.000,-5.090,
-70.000,-4.970,
-69.000,-4.830,
-68.000,-4.700,
-67.000,-4.580,
-66.000,-4.460,
-65.000,-4.300,
-64.000,-4.180,
-63.000,-4.070,
-62.000,-3.950,
-61.000,-3.820,
-60.000,-3.700,
-59.000,-3.590,
-58.000,-3.480,
-57.000,-3.360,
-56.000,-3.250,
-55.000,-3.150,
-54.000,-3.040,
-53.000,-2.930,
-52.000,-2.830,
-51.000,-2.730,
-50.000,-2.630,
-49.000,-2.530,
-48.000,-2.430,
-47.000,-2.340,
-46.000,-2.240,
-45.000,-2.150,
-44.000,-2.050,
-43.000,-1.960,
-42.000,-1.880,
-41.000,-1.790,
-40.000,-1.710,
-39.000,-1.630,
-38.000,-1.550,
-37.000,-1.470,
-36.000,-1.410,
-35.000,-1.310,
-34.000,-1.250,
-33.000,-1.170,
-32.000,-1.110,
-31.000,-1.040,
-30.000,-0.970,
-29.000,-0.910,
-28.000,-0.860,
-27.000,-0.790,
-26.000,-0.740,
-25.000,-0.690,
-24.000,-0.640,
-23.000,-0.580,
-22.000,-0.530,
-21.000,-0.480,
-20.000,-0.450,
-19.000,-0.400,
-18.000,-0.370,
-17.000,-0.320,
-16.000,-0.280,
-15.000,-0.250,
-14.000,-0.220,
-13.000,-0.210,
-12.000,-0.170,
-11.000,-0.140,
-10.000,-0.110,
-9.000,-0.100,
-8.000,-0.070,
-7.000,-0.060,
-6.000,-0.040,
-5.000,-0.030,
-4.000,-0.020,
-3.000,-0.010,
-2.000,-0.010,
-1.000,-0.010,
0.000,0.000,
1.000,-0.010,
2.000,-0.010,
3.000,-0.020,
4.000,-0.030,
5.000,-0.040,
6.000,-0.050,
7.000,-0.070,
8.000,-0.080,
9.000,-0.100,
10.000,-0.130,
11.000,-0.150,
12.000,-0.180,
13.000,-0.200,
14.000,-0.240,
15.000,-0.270,
16.000,-0.300,
17.000,-0.340,
18.000,-0.380,
19.000,-0.420,
20.000,-0.460,
21.000,-0.510,
22.000,-0.570,
23.000,-0.600,
24.000,-0.650,
25.000,-0.710,
26.000,-0.770,
27.000,-0.820,
28.000,-0.880,
29.000,-0.960,
30.000,-1.010,
31.000,-1.080,
32.000,-1.150,
33.000,-1.210,
34.000,-1.280,
35.000,-1.360,
36.000,-1.430,
37.000,-1.510,
38.000,-1.600,
39.000,-1.670,
40.000,-1.760,
41.000,-1.850,
42.000,-1.930,
43.000,-2.010,
44.000,-2.100,
45.000,-2.190,
46.000,-2.280,
47.000,-2.380,
48.000,-2.480,
49.000,-2.580,
50.000,-2.670,
51.000,-2.790,
52.000,-2.880,
53.000,-2.990,
54.000,-3.090,
55.000,-3.210,
56.000,-3.320,
57.000,-3.430,
58.000,-3.540,
59.000,-3.670,
60.000,-3.780,
61.000,-3.900,
62.000,-4.000,
63.000,-4.130,
64.000,-4.250,
65.000,-4.380,
66.000,-4.490,
67.000,-4.620,
68.000,-4.760,
69.000,-4.880,
70.000,-5.020,
71.000,-5.130,
72.000,-5.290,
73.000,-5.440,
74.000,-5.570,
75.000,-5.690,
76.000,-5.830,
77.000,-5.970,
78.000,-6.120,
79.000,-6.250,
80.000,-6.400,
81.000,-6.540,
82.000,-6.680,
83.000,-6.830,
84.000,-6.980,
85.000,-7.130,
86.000,-7.280,
87.000,-7.420,
88.000,-7.580,
89.000,-7.730,
90.000,-7.880,
91.000,-8.030,
92.000,-8.190,
93.000,-8.350,
94.000,-8.490,
95.000,-8.670,
96.000,-8.820,
97.000,-8.990,
98.000,-9.150,
99.000,-9.320,
100.000,-9.490,
101.000,-9.660,
102.000,-9.810,
103.000,-9.990,
104.000,-10.160,
105.000,-10.330,
106.000,-10.500,
107.000,-10.690,
108.000,-10.870,
109.000,-11.070,
110.000,-11.250,
111.000,-11.450,
112.000,-11.640,
113.000,-11.840,
114.000,-12.030,
115.000,-12.210,
116.000,-12.420,
117.000,-12.610,
118.000,-12.830,
119.000,-13.040,
120.000,-13.240,
121.000,-13.450,
122.000,-13.690,
123.000,-13.920,
124.000,-14.150,
125.000,-14.370,
126.000,-14.610,
127.000,-14.840,
128.000,-15.100,
129.000,-15.330,
130.000,-15.580,
131.000,-15.820,
132.000,-16.080,
133.000,-16.310,
134.000,-16.530,
135.000,-16.740,
136.000,-16.960,
137.000,-17.190,
138.000,-17.420,
139.000,-17.630,
140.000,-17.800,
141.000,-17.990,
142.000,-18.170,
143.000,-18.320,
144.000,-18.520,
145.000,-18.680,
146.000,-18.820,
147.000,-18.950,
148.000,-19.070,
149.000,-19.180,
150.000,-19.260,
151.000,-19.320,
152.000,-19.360,
153.000,-19.410,
154.000,-19.430,
155.000,-19.430,
156.000,-19.430,
157.000,-19.410,
158.000,-19.390,
159.000,-19.350,
160.000,-19.340,
161.000,-19.300,
162.000,-19.270,
163.000,-19.220,
164.000,-19.160,
165.000,-19.150,
166.000,-19.080,
167.000,-19.030,
168.000,-19.020,
169.000,-18.950,
170.000,-18.940,
171.000,-18.830,
172.000,-18.790,
173.000,-18.720,
174.000,-18.670,
175.000,-18.590,
176.000,-18.570,
177.000,-18.590,
178.000,-18.540,
179.000,-18.500,
PATCUT:,EL
POLARI:,V/V
NUPOIN:,360
FSTLST:,-180,179
-180.000,-18.680,
-179.000,-18.740,
-178.000,-18.960,
-177.000,-19.300,
-176.000,-19.800,
-175.000,-20.440,
-174.000,-21.240,
-173.000,-22.270,
-172.000,-23.480,
-171.000,-24.970,
-170.000,-26.770,
-169.000,-29.150,
-168.000,-32.010,
-167.000,-35.740,
-166.000,-39.840,
-165.000,-39.400,
-164.000,-36.180,
-163.000,-33.530,
-162.000,-31.530,
-161.000,-30.270,
-160.000,-29.380,
-159.000,-28.760,
-158.000,-28.380,
-157.000,-28.190,
-156.000,-28.150,
-155.000,-28.220,
-154.000,-28.430,
-153.000,-28.700,
-152.000,-29.070,
-151.000,-29.540,
-150.000,-30.060,
-149.000,-30.680,
-148.000,-31.360,
-147.000,-32.100,
-146.000,-33.010,
-145.000,-33.950,
-144.000,-34.930,
-143.000,-36.050,
-142.000,-37.250,
-141.000,-38.560,
-140.000,-39.990,
-139.000,-41.530,
-138.000,-43.360,
-137.000,-45.050,
-136.000,-46.790,
-135.000,-48.240,
-134.000,-48.870,
-133.000,-48.430,
-132.000,-47.450,
-131.000,-46.130,
-130.000,-45.000,
-129.000,-43.850,
-128.000,-42.860,
-127.000,-41.930,
-126.000,-41.050,
-125.000,-40.360,
-124.000,-39.810,
-123.000,-39.250,
-122.000,-38.890,
-121.000,-38.420,
-120.000,-38.020,
-119.000,-37.750,
-118.000,-37.520,
-117.000,-37.260,
-116.000,-37.070,
-115.000,-36.950,
-114.000,-36.870,
-113.000,-36.770,
-112.000,-36.720,
-111.000,-36.690,
-110.000,-36.640,
-109.000,-36.600,
-108.000,-36.600,
-107.000,-36.650,
-106.000,-36.640,
-105.000,-36.670,
-104.000,-36.720,
-103.000,-36.780,
-102.000,-36.820,
-101.000,-36.870,
-100.000,-36.860,
-99.000,-36.840,
-98.000,-36.810,
-97.000,-36.690,
-96.000,-36.570,
-95.000,-36.350,
-94.000,-36.080,
-93.000,-35.770,
-92.000,-35.380,
-91.000,-34.930,
-90.000,-34.440,
-89.000,-33.900,
-88.000,-33.320,
-87.000,-32.680,
-86.000,-32.070,
-85.000,-31.420,
-84.000,-30.740,
-83.000,-30.060,
-82.000,-29.380,
-81.000,-28.710,
-80.000,-27.960,
-79.000,-27.310,
-78.000,-26.660,
-77.000,-26.020,
-76.000,-25.360,
-75.000,-24.770,
-74.000,-24.180,
-73.000,-23.580,
-72.000,-23.040,
-71.000,-22.510,
-70.000,-22.000,
-69.000,-21.520,
-68.000,-21.100,
-67.000,-20.720,
-66.000,-20.330,
-65.000,-20.020,
-64.000,-19.760,
-63.000,-19.540,
-62.000,-19.370,
-61.000,-19.270,
-60.000,-19.220,
-59.000,-19.270,
-58.000,-19.380,
-57.000,-19.590,
-56.000,-19.880,
-55.000,-20.290,
-54.000,-20.810,
-53.000,-21.460,
-52.000,-22.250,
-51.000,-23.220,
-50.000,-24.440,
-49.000,-25.760,
-48.000,-27.180,
-47.000,-28.400,
-46.000,-28.800,
-45.000,-28.250,
-44.000,-27.020,
-43.000,-25.740,
-42.000,-24.550,
-41.000,-23.610,
-40.000,-22.950,
-39.000,-22.540,
-38.000,-22.380,
-37.000,-22.500,
-36.000,-22.930,
-35.000,-23.710,
-34.000,-25.000,
-33.000,-26.980,
-32.000,-29.840,
-31.000,-33.650,
-30.000,-33.850,
-29.000,-29.530,
-28.000,-25.850,
-27.000,-23.120,
-26.000,-21.180,
-25.000,-19.800,
-24.000,-18.860,
-23.000,-18.270,
-22.000,-18.070,
-21.000,-18.240,
-20.000,-18.900,
-19.000,-20.030,
-18.000,-21.500,
-17.000,-22.480,
-16.000,-21.340,
-15.000,-18.270,
-14.000,-15.240,
-13.000,-12.630,
-12.000,-10.350,
-11.000,-8.410,
-10.000,-6.820,
-9.000,-5.370,
-8.000,-4.180,
-7.000,-3.190,
-6.000,-2.370,
-5.000,-1.630,
-4.000,-1.060,
-3.000,-0.630,
-2.000,-0.310,
-1.000,-0.100,
0.000,0.000,
1.000,-0.090,
2.000,-0.290,
3.000,-0.600,
4.000,-1.050,
5.000,-1.610,
6.000,-2.320,
7.000,-3.210,
8.000,-4.230,
9.000,-5.500,
10.000,-6.930,
11.000,-8.630,
12.000,-10.810,
13.000,-13.330,
14.000,-16.440,
15.000,-20.540,
16.000,-24.200,
17.000,-23.770,
18.000,-21.070,
19.000,-19.040,
20.000,-17.750,
21.000,-17.030,
22.000,-16.760,
23.000,-16.870,
24.000,-17.310,
25.000,-18.050,
26.000,-19.120,
27.000,-20.570,
28.000,-22.410,
29.000,-24.740,
30.000,-28.100,
31.000,-32.460,
32.000,-37.410,
33.000,-36.380,
34.000,-32.620,
35.000,-30.250,
36.000,-28.870,
37.000,-28.150,
38.000,-27.970,
39.000,-28.210,
40.000,-28.720,
41.000,-29.330,
42.000,-29.700,
43.000,-29.450,
44.000,-28.500,
45.000,-27.080,
46.000,-25.530,
47.000,-24.110,
48.000,-22.870,
49.000,-21.760,
50.000,-20.850,
51.000,-20.110,
52.000,-19.530,
53.000,-19.000,
54.000,-18.610,
55.000,-18.320,
56.000,-18.110,
57.000,-17.970,
58.000,-17.900,
59.000,-17.910,
60.000,-17.990,
61.000,-18.100,
62.000,-18.260,
63.000,-18.470,
64.000,-18.750,
65.000,-19.040,
66.000,-19.380,
67.000,-19.750,
68.000,-20.170,
69.000,-20.610,
70.000,-21.060,
71.000,-21.580,
72.000,-22.070,
73.000,-22.580,
74.000,-23.090,
75.000,-23.610,
76.000,-24.110,
77.000,-24.610,
78.000,-25.100,
79.000,-25.540,
80.000,-25.970,
81.000,-26.340,
82.000,-26.680,
83.000,-26.950,
84.000,-27.220,
85.000,-27.390,
86.000,-27.540,
87.000,-27.650,
88.000,-27.690,
89.000,-27.710,
90.000,-27.690,
91.000,-27.650,
92.000,-27.610,
93.000,-27.540,
94.000,-27.490,
95.000,-27.440,
96.000,-27.390,
97.000,-27.330,
98.000,-27.310,
99.000,-27.310,
100.000,-27.330,
101.000,-27.370,
102.000,-27.430,
103.000,-27.490,
104.000,-27.600,
105.000,-27.720,
106.000,-27.860,
107.000,-28.010,
108.000,-28.190,
109.000,-28.400,
110.000,-28.610,
111.000,-28.840,
112.000,-29.070,
113.000,-29.330,
114.000,-29.600,
115.000,-29.900,
116.000,-30.220,
117.000,-30.530,
118.000,-30.930,
119.000,-31.290,
120.000,-31.720,
121.000,-32.200,
122.000,-32.690,
123.000,-33.210,
124.000,-33.840,
125.000,-34.480,
126.000,-35.210,
127.000,-36.000,
128.000,-36.780,
129.000,-37.600,
130.000,-38.230,
131.000,-38.690,
132.000,-38.820,
133.000,-38.510,
134.000,-37.890,
135.000,-37.210,
136.000,-36.410,
137.000,-35.650,
138.000,-34.980,
139.000,-34.410,
140.000,-33.910,
141.000,-33.520,
142.000,-33.180,
143.000,-32.860,
144.000,-32.560,
145.000,-32.220,
146.000,-31.870,
147.000,-31.380,
148.000,-30.870,
149.000,-30.340,
150.000,-29.770,
151.000,-29.210,
152.000,-28.730,
153.000,-28.370,
154.000,-28.050,
155.000,-27.860,
156.000,-27.830,
157.000,-27.950,
158.000,-28.270,
159.000,-28.800,
160.000,-29.650,
161.000,-30.840,
162.000,-32.600,
163.000,-35.150,
164.000,-38.490,
165.000,-40.090,
166.000,-36.670,
167.000,-32.530,
168.000,-29.570,
169.000,-27.120,
170.000,-25.240,
171.000,-23.770,
172.000,-22.410,
173.000,-21.880,
174.000,-20.970,
175.000,-20.240,
176.000,-19.650,
177.000,-19.220,
178.000,-18.910,
179.000,-18.730,
ENDFIL:,EOF
