REVNUM:,NSMA WG16.99.050
REVDAT:,19990520
ANTMAN:,KATHREIN
MODNUM:,738449
DESCR1:,Omni
DESCR2:,0 dBd - Vertical polarization
DESCR3:,360 degree
DTDATA:,19991007
LOWFRQ:,870
HGHFRQ:,960
GUNITS:,DBD/DBR
MDGAIN:,0.0
AZWIDT:,360
ELWIDT:,78.0
ELTILT:,0.0
ANTLEN:,0.22
ANTWID:,0.02
ANTDEP:,0.02
ANTWGT:,0.3
PATTYP:,TYPICAL
NOFREQ:,1
PATFRE:,947.5
NUMCUT:,2
PATCUT:,AZ
POLARI:,V/V
NUPOIN:,360
FSTLST:,-180,179
-180.000,0.000,
-179.000,0.000,
-178.000,0.000,
-177.000,0.000,
-176.000,0.000,
-175.000,0.000,
-174.000,0.000,
-173.000,0.000,
-172.000,0.000,
-171.000,0.000,
-170.000,0.000,
-169.000,0.000,
-168.000,0.000,
-167.000,0.000,
-166.000,0.000,
-165.000,0.000,
-164.000,0.000,
-163.000,0.000,
-162.000,0.000,
-161.000,0.000,
-160.000,0.000,
-159.000,0.000,
-158.000,0.000,
-157.000,0.000,
-156.000,0.000,
-155.000,0.000,
-154.000,0.000,
-153.000,0.000,
-152.000,0.000,
-151.000,0.000,
-150.000,0.000,
-149.000,0.000,
-148.000,0.000,
-147.000,0.000,
-146.000,0.000,
-145.000,0.000,
-144.000,0.000,
-143.000,0.000,
-142.000,0.000,
-141.000,0.000,
-140.000,0.000,
-139.000,0.000,
-138.000,0.000,
-137.000,0.000,
-136.000,0.000,
-135.000,0.000,
-134.000,0.000,
-133.000,0.000,
-132.000,0.000,
-131.000,0.000,
-130.000,0.000,
-129.000,0.000,
-128.000,0.000,
-127.000,0.000,
-126.000,0.000,
-125.000,0.000,
-124.000,0.000,
-123.000,0.000,
-122.000,0.000,
-121.000,0.000,
-120.000,0.000,
-119.000,0.000,
-118.000,0.000,
-117.000,0.000,
-116.000,0.000,
-115.000,0.000,
-114.000,0.000,
-113.000,0.000,
-112.000,0.000,
-111.000,0.000,
-110.000,0.000,
-109.000,0.000,
-108.000,0.000,
-107.000,0.000,
-106.000,0.000,
-105.000,0.000,
-104.000,0.000,
-103.000,0.000,
-102.000,0.000,
-101.000,0.000,
-100.000,0.000,
-99.000,0.000,
-98.000,0.000,
-97.000,0.000,
-96.000,0.000,
-95.000,0.000,
-94.000,0.000,
-93.000,0.000,
-92.000,0.000,
-91.000,0.000,
-90.000,0.000,
-89.000,0.000,
-88.000,0.000,
-87.000,0.000,
-86.000,0.000,
-85.000,0.000,
-84.000,0.000,
-83.000,0.000,
-82.000,0.000,
-81.000,0.000,
-80.000,0.000,
-79.000,0.000,
-78.000,0.000,
-77.000,0.000,
-76.000,0.000,
-75.000,0.000,
-74.000,0.000,
-73.000,0.000,
-72.000,0.000,
-71.000,0.000,
-70.000,0.000,
-69.000,0.000,
-68.000,0.000,
-67.000,0.000,
-66.000,0.000,
-65.000,0.000,
-64.000,0.000,
-63.000,0.000,
-62.000,0.000,
-61.000,0.000,
-60.000,0.000,
-59.000,0.000,
-58.000,0.000,
-57.000,0.000,
-56.000,0.000,
-55.000,0.000,
-54.000,0.000,
-53.000,0.000,
-52.000,0.000,
-51.000,0.000,
-50.000,0.000,
-49.000,0.000,
-48.000,0.000,
-47.000,0.000,
-46.000,0.000,
-45.000,0.000,
-44.000,0.000,
-43.000,0.000,
-42.000,0.000,
-41.000,0.000,
-40.000,0.000,
-39.000,0.000,
-38.000,0.000,
-37.000,0.000,
-36.000,0.000,
-35.000,0.000,
-34.000,0.000,
-33.000,0.000,
-32.000,0.000,
-31.000,0.000,
-30.000,0.000,
-29.000,0.000,
-28.000,0.000,
-27.000,0.000,
-26.000,0.000,
-25.000,0.000,
-24.000,0.000,
-23.000,0.000,
-22.000,0.000,
-21.000,0.000,
-20.000,0.000,
-19.000,0.000,
-18.000,0.000,
-17.000,0.000,
-16.000,0.000,
-15.000,0.000,
-14.000,0.000,
-13.000,0.000,
-12.000,0.000,
-11.000,0.000,
-10.000,0.000,
-9.000,0.000,
-8.000,0.000,
-7.000,0.000,
-6.000,0.000,
-5.000,0.000,
-4.000,0.000,
-3.000,0.000,
-2.000,0.000,
-1.000,0.000,
0.000,0.000,
1.000,0.000,
2.000,0.000,
3.000,0.000,
4.000,0.000,
5.000,0.000,
6.000,0.000,
7.000,0.000,
8.000,0.000,
9.000,0.000,
10.000,0.000,
11.000,0.000,
12.000,0.000,
13.000,0.000,
14.000,0.000,
15.000,0.000,
16.000,0.000,
17.000,0.000,
18.000,0.000,
19.000,0.000,
20.000,0.000,
21.000,0.000,
22.000,0.000,
23.000,0.000,
24.000,0.000,
25.000,0.000,
26.000,0.000,
27.000,0.000,
28.000,0.000,
29.000,0.000,
30.000,0.000,
31.000,0.000,
32.000,0.000,
33.000,0.000,
34.000,0.000,
35.000,0.000,
36.000,0.000,
37.000,0.000,
38.000,0.000,
39.000,0.000,
40.000,0.000,
41.000,0.000,
42.000,0.000,
43.000,0.000,
44.000,0.000,
45.000,0.000,
46.000,0.000,
47.000,0.000,
48.000,0.000,
49.000,0.000,
50.000,0.000,
51.000,0.000,
52.000,0.000,
53.000,0.000,
54.000,0.000,
55.000,0.000,
56.000,0.000,
57.000,0.000,
58.000,0.000,
59.000,0.000,
60.000,0.000,
61.000,0.000,
62.000,0.000,
63.000,0.000,
64.000,0.000,
65.000,0.000,
66.000,0.000,
67.000,0.000,
68.000,0.000,
69.000,0.000,
70.000,0.000,
71.000,0.000,
72.000,0.000,
73.000,0.000,
74.000,0.000,
75.000,0.000,
76.000,0.000,
77.000,0.000,
78.000,0.000,
79.000,0.000,
80.000,0.000,
81.000,0.000,
82.000,0.000,
83.000,0.000,
84.000,0.000,
85.000,0.000,
86.000,0.000,
87.000,0.000,
88.000,0.000,
89.000,0.000,
90.000,0.000,
91.000,0.000,
92.000,0.000,
93.000,0.000,
94.000,0.000,
95.000,0.000,
96.000,0.000,
97.000,0.000,
98.000,0.000,
99.000,0.000,
100.000,0.000,
101.000,0.000,
102.000,0.000,
103.000,0.000,
104.000,0.000,
105.000,0.000,
106.000,0.000,
107.000,0.000,
108.000,0.000,
109.000,0.000,
110.000,0.000,
111.000,0.000,
112.000,0.000,
113.000,0.000,
114.000,0.000,
115.000,0.000,
116.000,0.000,
117.000,0.000,
118.000,0.000,
119.000,0.000,
120.000,0.000,
121.000,0.000,
122.000,0.000,
123.000,0.000,
124.000,0.000,
125.000,0.000,
126.000,0.000,
127.000,0.000,
128.000,0.000,
129.000,0.000,
130.000,0.000,
131.000,0.000,
132.000,0.000,
133.000,0.000,
134.000,0.000,
135.000,0.000,
136.000,0.000,
137.000,0.000,
138.000,0.000,
139.000,0.000,
140.000,0.000,
141.000,0.000,
142.000,0.000,
143.000,0.000,
144.000,0.000,
145.000,0.000,
146.000,0.000,
147.000,0.000,
148.000,0.000,
149.000,0.000,
150.000,0.000,
151.000,0.000,
152.000,0.000,
153.000,0.000,
154.000,0.000,
155.000,0.000,
156.000,0.000,
157.000,0.000,
158.000,0.000,
159.000,0.000,
160.000,0.000,
161.000,0.000,
162.000,0.000,
163.000,0.000,
164.000,0.000,
165.000,0.000,
166.000,0.000,
167.000,0.000,
168.000,0.000,
169.000,0.000,
170.000,0.000,
171.000,0.000,
172.000,0.000,
173.000,0.000,
174.000,0.000,
175.000,0.000,
176.000,0.000,
177.000,0.000,
178.000,0.000,
179.000,0.000,
PATCUT:,EL
POLARI:,V/V
NUPOIN:,360
FSTLST:,-180,179
-180.000,-0.500,
-179.000,-0.500,
-178.000,-0.500,
-177.000,-0.400,
-176.000,-0.400,
-175.000,-0.400,
-174.000,-0.300,
-173.000,-0.300,
-172.000,-0.300,
-171.000,-0.300,
-170.000,-0.300,
-169.000,-0.300,
-168.000,-0.200,
-167.000,-0.200,
-166.000,-0.200,
-165.000,-0.200,
-164.000,-0.200,
-163.000,-0.200,
-162.000,-0.200,
-161.000,-0.200,
-160.000,-0.200,
-159.000,-0.200,
-158.000,-0.200,
-157.000,-0.300,
-156.000,-0.300,
-155.000,-0.300,
-154.000,-0.300,
-153.000,-0.400,
-152.000,-0.400,
-151.000,-0.400,
-150.000,-0.500,
-149.000,-0.500,
-148.000,-0.600,
-147.000,-0.700,
-146.000,-0.700,
-145.000,-0.800,
-144.000,-0.900,
-143.000,-1.000,
-142.000,-1.100,
-141.000,-1.200,
-140.000,-1.300,
-139.000,-1.500,
-138.000,-1.600,
-137.000,-1.800,
-136.000,-1.900,
-135.000,-2.100,
-134.000,-2.300,
-133.000,-2.400,
-132.000,-2.600,
-131.000,-2.800,
-130.000,-3.000,
-129.000,-3.300,
-128.000,-3.500,
-127.000,-3.800,
-126.000,-4.000,
-125.000,-4.300,
-124.000,-4.500,
-123.000,-4.800,
-122.000,-5.100,
-121.000,-5.400,
-120.000,-5.700,
-119.000,-6.000,
-118.000,-6.400,
-117.000,-6.700,
-116.000,-7.100,
-115.000,-7.400,
-114.000,-7.800,
-113.000,-8.200,
-112.000,-8.600,
-111.000,-9.000,
-110.000,-9.400,
-109.000,-9.800,
-108.000,-10.300,
-107.000,-10.800,
-106.000,-11.300,
-105.000,-11.800,
-104.000,-12.300,
-103.000,-12.900,
-102.000,-13.500,
-101.000,-14.200,
-100.000,-14.900,
-99.000,-15.600,
-98.000,-16.400,
-97.000,-17.300,
-96.000,-18.300,
-95.000,-19.400,
-94.000,-20.700,
-93.000,-22.200,
-92.000,-24.100,
-91.000,-26.200,
-90.000,-28.600,
-89.000,-30.500,
-88.000,-31.200,
-87.000,-30.300,
-86.000,-28.200,
-85.000,-25.800,
-84.000,-23.700,
-83.000,-21.900,
-82.000,-20.300,
-81.000,-19.000,
-80.000,-17.900,
-79.000,-16.800,
-78.000,-15.900,
-77.000,-15.000,
-76.000,-14.300,
-75.000,-13.500,
-74.000,-12.900,
-73.000,-12.200,
-72.000,-11.700,
-71.000,-11.100,
-70.000,-10.600,
-69.000,-10.100,
-68.000,-9.600,
-67.000,-9.200,
-66.000,-8.700,
-65.000,-8.300,
-64.000,-7.900,
-63.000,-7.600,
-62.000,-7.200,
-61.000,-6.900,
-60.000,-6.500,
-59.000,-6.200,
-58.000,-5.900,
-57.000,-5.600,
-56.000,-5.300,
-55.000,-5.000,
-54.000,-4.700,
-53.000,-4.500,
-52.000,-4.200,
-51.000,-4.000,
-50.000,-3.700,
-49.000,-3.500,
-48.000,-3.300,
-47.000,-3.100,
-46.000,-2.900,
-45.000,-2.700,
-44.000,-2.500,
-43.000,-2.300,
-42.000,-2.100,
-41.000,-2.000,
-40.000,-1.800,
-39.000,-1.700,
-38.000,-1.500,
-37.000,-1.400,
-36.000,-1.200,
-35.000,-1.100,
-34.000,-1.000,
-33.000,-0.900,
-32.000,-0.800,
-31.000,-0.700,
-30.000,-0.600,
-29.000,-0.500,
-28.000,-0.400,
-27.000,-0.400,
-26.000,-0.300,
-25.000,-0.300,
-24.000,-0.200,
-23.000,-0.200,
-22.000,-0.100,
-21.000,-0.100,
-20.000,-0.100,
-19.000,0.000,
-18.000,0.000,
-17.000,0.000,
-16.000,0.000,
-15.000,0.000,
-14.000,0.000,
-13.000,0.000,
-12.000,0.000,
-11.000,0.000,
-10.000,-0.100,
-9.000,-0.100,
-8.000,-0.100,
-7.000,-0.100,
-6.000,-0.200,
-5.000,-0.200,
-4.000,-0.200,
-3.000,-0.300,
-2.000,-0.300,
-1.000,-0.300,
0.000,-0.400,
1.000,-0.400,
2.000,-0.500,
3.000,-0.500,
4.000,-0.600,
5.000,-0.600,
6.000,-0.700,
7.000,-0.700,
8.000,-0.800,
9.000,-0.800,
10.000,-0.800,
11.000,-0.900,
12.000,-0.900,
13.000,-1.000,
14.000,-1.000,
15.000,-1.100,
16.000,-1.100,
17.000,-1.200,
18.000,-1.200,
19.000,-1.300,
20.000,-1.300,
21.000,-1.300,
22.000,-1.400,
23.000,-1.400,
24.000,-1.500,
25.000,-1.500,
26.000,-1.600,
27.000,-1.700,
28.000,-1.700,
29.000,-1.800,
30.000,-1.800,
31.000,-1.900,
32.000,-2.000,
33.000,-2.000,
34.000,-2.100,
35.000,-2.200,
36.000,-2.300,
37.000,-2.400,
38.000,-2.500,
39.000,-2.600,
40.000,-2.700,
41.000,-2.800,
42.000,-2.900,
43.000,-3.100,
44.000,-3.200,
45.000,-3.400,
46.000,-3.500,
47.000,-3.700,
48.000,-3.900,
49.000,-4.100,
50.000,-4.300,
51.000,-4.500,
52.000,-4.700,
53.000,-4.900,
54.000,-5.200,
55.000,-5.400,
56.000,-5.700,
57.000,-5.900,
58.000,-6.200,
59.000,-6.500,
60.000,-6.800,
61.000,-7.100,
62.000,-7.400,
63.000,-7.700,
64.000,-8.100,
65.000,-8.400,
66.000,-8.800,
67.000,-9.100,
68.000,-9.500,
69.000,-9.900,
70.000,-10.300,
71.000,-10.800,
72.000,-11.200,
73.000,-11.700,
74.000,-12.200,
75.000,-12.700,
76.000,-13.200,
77.000,-13.800,
78.000,-14.400,
79.000,-15.000,
80.000,-15.700,
81.000,-16.400,
82.000,-17.200,
83.000,-18.000,
84.000,-18.900,
85.000,-19.800,
86.000,-20.800,
87.000,-21.800,
88.000,-22.700,
89.000,-23.400,
90.000,-23.800,
91.000,-23.900,
92.000,-23.600,
93.000,-23.000,
94.000,-22.100,
95.000,-21.200,
96.000,-20.200,
97.000,-19.200,
98.000,-18.300,
99.000,-17.400,
100.000,-16.600,
101.000,-15.800,
102.000,-15.100,
103.000,-14.400,
104.000,-13.800,
105.000,-13.100,
106.000,-12.600,
107.000,-12.000,
108.000,-11.500,
109.000,-11.000,
110.000,-10.500,
111.000,-10.000,
112.000,-9.600,
113.000,-9.200,
114.000,-8.800,
115.000,-8.400,
116.000,-8.000,
117.000,-7.600,
118.000,-7.300,
119.000,-7.000,
120.000,-6.600,
121.000,-6.300,
122.000,-6.000,
123.000,-5.700,
124.000,-5.500,
125.000,-5.200,
126.000,-5.000,
127.000,-4.700,
128.000,-4.500,
129.000,-4.300,
130.000,-4.000,
131.000,-3.800,
132.000,-3.700,
133.000,-3.500,
134.000,-3.300,
135.000,-3.100,
136.000,-3.000,
137.000,-2.800,
138.000,-2.700,
139.000,-2.600,
140.000,-2.400,
141.000,-2.300,
142.000,-2.200,
143.000,-2.100,
144.000,-2.000,
145.000,-1.900,
146.000,-1.800,
147.000,-1.800,
148.000,-1.700,
149.000,-1.600,
150.000,-1.600,
151.000,-1.500,
152.000,-1.500,
153.000,-1.400,
154.000,-1.400,
155.000,-1.400,
156.000,-1.300,
157.000,-1.300,
158.000,-1.200,
159.000,-1.200,
160.000,-1.200,
161.000,-1.200,
162.000,-1.100,
163.000,-1.100,
164.000,-1.100,
165.000,-1.000,
166.000,-1.000,
167.000,-1.000,
168.000,-1.000,
169.000,-0.900,
170.000,-0.900,
171.000,-0.900,
172.000,-0.800,
173.000,-0.800,
174.000,-0.800,
175.000,-0.700,
176.000,-0.700,
177.000,-0.600,
178.000,-0.600,
179.000,-0.600,
ENDFIL:,EOF
