REVNUM:,NSMA WG16.99.050
REVDAT:,19990520
ANTMAN:,KATHREIN
MODNUM:,738454
DESCR1:,Omni
DESCR2:,0 dBd - Vertical polarization
DESCR3:,360 degree
DTDATA:,20001214
LOWFRQ:,1710
HGHFRQ:,2170
GUNITS:,DBD/DBR
MDGAIN:,0.0
AZWIDT:,360
ELWIDT:,78.0
ELTILT:,0.0
ANTLEN:,0.12
ANTWID:,0.02
ANTDEP:,0.02
ANTWGT:,0.1
PATTYP:,TYPICAL
NOFREQ:,1
PATFRE:,2170.0
NUMCUT:,2
PATCUT:,AZ
POLARI:,V/V
NUPOIN:,360
FSTLST:,-180,179
-180.000,0.000,
-179.000,0.000,
-178.000,0.000,
-177.000,0.000,
-176.000,0.000,
-175.000,0.000,
-174.000,0.000,
-173.000,0.000,
-172.000,0.000,
-171.000,0.000,
-170.000,0.000,
-169.000,0.000,
-168.000,0.000,
-167.000,0.000,
-166.000,0.000,
-165.000,0.000,
-164.000,0.000,
-163.000,0.000,
-162.000,0.000,
-161.000,0.000,
-160.000,0.000,
-159.000,0.000,
-158.000,0.000,
-157.000,0.000,
-156.000,0.000,
-155.000,0.000,
-154.000,0.000,
-153.000,0.000,
-152.000,0.000,
-151.000,0.000,
-150.000,0.000,
-149.000,0.000,
-148.000,0.000,
-147.000,0.000,
-146.000,0.000,
-145.000,0.000,
-144.000,0.000,
-143.000,0.000,
-142.000,0.000,
-141.000,0.000,
-140.000,0.000,
-139.000,0.000,
-138.000,0.000,
-137.000,0.000,
-136.000,0.000,
-135.000,0.000,
-134.000,0.000,
-133.000,0.000,
-132.000,0.000,
-131.000,0.000,
-130.000,0.000,
-129.000,0.000,
-128.000,0.000,
-127.000,0.000,
-126.000,0.000,
-125.000,0.000,
-124.000,0.000,
-123.000,0.000,
-122.000,0.000,
-121.000,0.000,
-120.000,0.000,
-119.000,0.000,
-118.000,0.000,
-117.000,0.000,
-116.000,0.000,
-115.000,0.000,
-114.000,0.000,
-113.000,0.000,
-112.000,0.000,
-111.000,0.000,
-110.000,0.000,
-109.000,0.000,
-108.000,0.000,
-107.000,0.000,
-106.000,0.000,
-105.000,0.000,
-104.000,0.000,
-103.000,0.000,
-102.000,0.000,
-101.000,0.000,
-100.000,0.000,
-99.000,0.000,
-98.000,0.000,
-97.000,0.000,
-96.000,0.000,
-95.000,0.000,
-94.000,0.000,
-93.000,0.000,
-92.000,0.000,
-91.000,0.000,
-90.000,0.000,
-89.000,0.000,
-88.000,0.000,
-87.000,0.000,
-86.000,0.000,
-85.000,0.000,
-84.000,0.000,
-83.000,0.000,
-82.000,0.000,
-81.000,0.000,
-80.000,0.000,
-79.000,0.000,
-78.000,0.000,
-77.000,0.000,
-76.000,0.000,
-75.000,0.000,
-74.000,0.000,
-73.000,0.000,
-72.000,0.000,
-71.000,0.000,
-70.000,0.000,
-69.000,0.000,
-68.000,0.000,
-67.000,0.000,
-66.000,0.000,
-65.000,0.000,
-64.000,0.000,
-63.000,0.000,
-62.000,0.000,
-61.000,0.000,
-60.000,0.000,
-59.000,0.000,
-58.000,0.000,
-57.000,0.000,
-56.000,0.000,
-55.000,0.000,
-54.000,0.000,
-53.000,0.000,
-52.000,0.000,
-51.000,0.000,
-50.000,0.000,
-49.000,0.000,
-48.000,0.000,
-47.000,0.000,
-46.000,0.000,
-45.000,0.000,
-44.000,0.000,
-43.000,0.000,
-42.000,0.000,
-41.000,0.000,
-40.000,0.000,
-39.000,0.000,
-38.000,0.000,
-37.000,0.000,
-36.000,0.000,
-35.000,0.000,
-34.000,0.000,
-33.000,0.000,
-32.000,0.000,
-31.000,0.000,
-30.000,0.000,
-29.000,0.000,
-28.000,0.000,
-27.000,0.000,
-26.000,0.000,
-25.000,0.000,
-24.000,0.000,
-23.000,0.000,
-22.000,0.000,
-21.000,0.000,
-20.000,0.000,
-19.000,0.000,
-18.000,0.000,
-17.000,0.000,
-16.000,0.000,
-15.000,0.000,
-14.000,0.000,
-13.000,0.000,
-12.000,0.000,
-11.000,0.000,
-10.000,0.000,
-9.000,0.000,
-8.000,0.000,
-7.000,0.000,
-6.000,0.000,
-5.000,0.000,
-4.000,0.000,
-3.000,0.000,
-2.000,0.000,
-1.000,0.000,
0.000,0.000,
1.000,0.000,
2.000,0.000,
3.000,0.000,
4.000,0.000,
5.000,0.000,
6.000,0.000,
7.000,0.000,
8.000,0.000,
9.000,0.000,
10.000,0.000,
11.000,0.000,
12.000,0.000,
13.000,0.000,
14.000,0.000,
15.000,0.000,
16.000,0.000,
17.000,0.000,
18.000,0.000,
19.000,0.000,
20.000,0.000,
21.000,0.000,
22.000,0.000,
23.000,0.000,
24.000,0.000,
25.000,0.000,
26.000,0.000,
27.000,0.000,
28.000,0.000,
29.000,0.000,
30.000,0.000,
31.000,0.000,
32.000,0.000,
33.000,0.000,
34.000,0.000,
35.000,0.000,
36.000,0.000,
37.000,0.000,
38.000,0.000,
39.000,0.000,
40.000,0.000,
41.000,0.000,
42.000,0.000,
43.000,0.000,
44.000,0.000,
45.000,0.000,
46.000,0.000,
47.000,0.000,
48.000,0.000,
49.000,0.000,
50.000,0.000,
51.000,0.000,
52.000,0.000,
53.000,0.000,
54.000,0.000,
55.000,0.000,
56.000,0.000,
57.000,0.000,
58.000,0.000,
59.000,0.000,
60.000,0.000,
61.000,0.000,
62.000,0.000,
63.000,0.000,
64.000,0.000,
65.000,0.000,
66.000,0.000,
67.000,0.000,
68.000,0.000,
69.000,0.000,
70.000,0.000,
71.000,0.000,
72.000,0.000,
73.000,0.000,
74.000,0.000,
75.000,0.000,
76.000,0.000,
77.000,0.000,
78.000,0.000,
79.000,0.000,
80.000,0.000,
81.000,0.000,
82.000,0.000,
83.000,0.000,
84.000,0.000,
85.000,0.000,
86.000,0.000,
87.000,0.000,
88.000,0.000,
89.000,0.000,
90.000,0.000,
91.000,0.000,
92.000,0.000,
93.000,0.000,
94.000,0.000,
95.000,0.000,
96.000,0.000,
97.000,0.000,
98.000,0.000,
99.000,0.000,
100.000,0.000,
101.000,0.000,
102.000,0.000,
103.000,0.000,
104.000,0.000,
105.000,0.000,
106.000,0.000,
107.000,0.000,
108.000,0.000,
109.000,0.000,
110.000,0.000,
111.000,0.000,
112.000,0.000,
113.000,0.000,
114.000,0.000,
115.000,0.000,
116.000,0.000,
117.000,0.000,
118.000,0.000,
119.000,0.000,
120.000,0.000,
121.000,0.000,
122.000,0.000,
123.000,0.000,
124.000,0.000,
125.000,0.000,
126.000,0.000,
127.000,0.000,
128.000,0.000,
129.000,0.000,
130.000,0.000,
131.000,0.000,
132.000,0.000,
133.000,0.000,
134.000,0.000,
135.000,0.000,
136.000,0.000,
137.000,0.000,
138.000,0.000,
139.000,0.000,
140.000,0.000,
141.000,0.000,
142.000,0.000,
143.000,0.000,
144.000,0.000,
145.000,0.000,
146.000,0.000,
147.000,0.000,
148.000,0.000,
149.000,0.000,
150.000,0.000,
151.000,0.000,
152.000,0.000,
153.000,0.000,
154.000,0.000,
155.000,0.000,
156.000,0.000,
157.000,0.000,
158.000,0.000,
159.000,0.000,
160.000,0.000,
161.000,0.000,
162.000,0.000,
163.000,0.000,
164.000,0.000,
165.000,0.000,
166.000,0.000,
167.000,0.000,
168.000,0.000,
169.000,0.000,
170.000,0.000,
171.000,0.000,
172.000,0.000,
173.000,0.000,
174.000,0.000,
175.000,0.000,
176.000,0.000,
177.000,0.000,
178.000,0.000,
179.000,0.000,
PATCUT:,EL
POLARI:,V/V
NUPOIN:,360
FSTLST:,-180,179
-180.000,-0.300,
-179.000,-0.300,
-178.000,-0.400,
-177.000,-0.500,
-176.000,-0.500,
-175.000,-0.600,
-174.000,-0.700,
-173.000,-0.800,
-172.000,-0.800,
-171.000,-0.900,
-170.000,-1.000,
-169.000,-1.000,
-168.000,-1.100,
-167.000,-1.100,
-166.000,-1.100,
-165.000,-1.100,
-164.000,-1.200,
-163.000,-1.200,
-162.000,-1.200,
-161.000,-1.300,
-160.000,-1.300,
-159.000,-1.300,
-158.000,-1.300,
-157.000,-1.300,
-156.000,-1.200,
-155.000,-1.200,
-154.000,-1.200,
-153.000,-1.100,
-152.000,-1.000,
-151.000,-1.000,
-150.000,-0.900,
-149.000,-0.900,
-148.000,-0.800,
-147.000,-0.800,
-146.000,-0.800,
-145.000,-0.800,
-144.000,-0.800,
-143.000,-0.800,
-142.000,-0.900,
-141.000,-1.000,
-140.000,-1.100,
-139.000,-1.200,
-138.000,-1.400,
-137.000,-1.500,
-136.000,-1.700,
-135.000,-1.900,
-134.000,-2.100,
-133.000,-2.300,
-132.000,-2.500,
-131.000,-2.800,
-130.000,-3.000,
-129.000,-3.300,
-128.000,-3.500,
-127.000,-3.800,
-126.000,-4.100,
-125.000,-4.400,
-124.000,-4.700,
-123.000,-5.000,
-122.000,-5.300,
-121.000,-5.600,
-120.000,-6.000,
-119.000,-6.300,
-118.000,-6.600,
-117.000,-7.000,
-116.000,-7.400,
-115.000,-7.800,
-114.000,-8.200,
-113.000,-8.600,
-112.000,-9.100,
-111.000,-9.600,
-110.000,-10.100,
-109.000,-10.700,
-108.000,-11.200,
-107.000,-11.800,
-106.000,-12.500,
-105.000,-13.200,
-104.000,-14.000,
-103.000,-14.800,
-102.000,-15.700,
-101.000,-16.700,
-100.000,-17.900,
-99.000,-19.200,
-98.000,-20.700,
-97.000,-22.500,
-96.000,-24.600,
-95.000,-27.000,
-94.000,-29.000,
-93.000,-30.000,
-92.000,-29.700,
-91.000,-28.100,
-90.000,-26.000,
-89.000,-23.900,
-88.000,-22.200,
-87.000,-20.700,
-86.000,-19.400,
-85.000,-18.300,
-84.000,-17.400,
-83.000,-16.500,
-82.000,-15.800,
-81.000,-15.100,
-80.000,-14.500,
-79.000,-13.900,
-78.000,-13.300,
-77.000,-12.800,
-76.000,-12.300,
-75.000,-11.800,
-74.000,-11.300,
-73.000,-10.900,
-72.000,-10.400,
-71.000,-9.900,
-70.000,-9.400,
-69.000,-9.000,
-68.000,-8.600,
-67.000,-8.100,
-66.000,-7.700,
-65.000,-7.300,
-64.000,-6.900,
-63.000,-6.400,
-62.000,-6.000,
-61.000,-5.700,
-60.000,-5.300,
-59.000,-4.900,
-58.000,-4.500,
-57.000,-4.200,
-56.000,-3.900,
-55.000,-3.600,
-54.000,-3.200,
-53.000,-2.900,
-52.000,-2.600,
-51.000,-2.300,
-50.000,-2.100,
-49.000,-1.800,
-48.000,-1.600,
-47.000,-1.300,
-46.000,-1.100,
-45.000,-1.000,
-44.000,-0.800,
-43.000,-0.600,
-42.000,-0.500,
-41.000,-0.400,
-40.000,-0.300,
-39.000,-0.200,
-38.000,-0.200,
-37.000,-0.100,
-36.000,-0.100,
-35.000,-0.100,
-34.000,-0.200,
-33.000,-0.200,
-32.000,-0.300,
-31.000,-0.300,
-30.000,-0.400,
-29.000,-0.500,
-28.000,-0.700,
-27.000,-0.800,
-26.000,-0.900,
-25.000,-1.100,
-24.000,-1.200,
-23.000,-1.300,
-22.000,-1.400,
-21.000,-1.500,
-20.000,-1.600,
-19.000,-1.700,
-18.000,-1.700,
-17.000,-1.700,
-16.000,-1.600,
-15.000,-1.600,
-14.000,-1.500,
-13.000,-1.300,
-12.000,-1.200,
-11.000,-1.000,
-10.000,-0.900,
-9.000,-0.700,
-8.000,-0.600,
-7.000,-0.400,
-6.000,-0.300,
-5.000,-0.200,
-4.000,-0.100,
-3.000,-0.100,
-2.000,0.000,
-1.000,0.000,
0.000,0.000,
1.000,0.000,
2.000,-0.100,
3.000,-0.100,
4.000,-0.100,
5.000,-0.200,
6.000,-0.200,
7.000,-0.300,
8.000,-0.400,
9.000,-0.400,
10.000,-0.500,
11.000,-0.600,
12.000,-0.700,
13.000,-0.800,
14.000,-1.000,
15.000,-1.100,
16.000,-1.300,
17.000,-1.400,
18.000,-1.600,
19.000,-1.800,
20.000,-2.000,
21.000,-2.200,
22.000,-2.400,
23.000,-2.600,
24.000,-2.800,
25.000,-3.000,
26.000,-3.100,
27.000,-3.300,
28.000,-3.400,
29.000,-3.500,
30.000,-3.600,
31.000,-3.700,
32.000,-3.800,
33.000,-3.800,
34.000,-3.900,
35.000,-3.900,
36.000,-3.900,
37.000,-3.900,
38.000,-3.900,
39.000,-3.900,
40.000,-3.800,
41.000,-3.800,
42.000,-3.800,
43.000,-3.700,
44.000,-3.700,
45.000,-3.600,
46.000,-3.600,
47.000,-3.600,
48.000,-3.500,
49.000,-3.500,
50.000,-3.500,
51.000,-3.500,
52.000,-3.400,
53.000,-3.400,
54.000,-3.500,
55.000,-3.500,
56.000,-3.500,
57.000,-3.600,
58.000,-3.700,
59.000,-3.800,
60.000,-4.000,
61.000,-4.100,
62.000,-4.300,
63.000,-4.500,
64.000,-4.700,
65.000,-5.000,
66.000,-5.200,
67.000,-5.500,
68.000,-5.900,
69.000,-6.200,
70.000,-6.600,
71.000,-7.000,
72.000,-7.400,
73.000,-7.900,
74.000,-8.400,
75.000,-8.800,
76.000,-9.400,
77.000,-9.900,
78.000,-10.500,
79.000,-11.100,
80.000,-11.800,
81.000,-12.500,
82.000,-13.200,
83.000,-14.000,
84.000,-15.000,
85.000,-16.000,
86.000,-17.200,
87.000,-18.500,
88.000,-20.100,
89.000,-21.900,
90.000,-23.900,
91.000,-25.800,
92.000,-26.900,
93.000,-26.700,
94.000,-25.300,
95.000,-23.100,
96.000,-21.000,
97.000,-19.100,
98.000,-17.500,
99.000,-16.200,
100.000,-15.000,
101.000,-13.900,
102.000,-13.000,
103.000,-12.100,
104.000,-11.300,
105.000,-10.600,
106.000,-10.000,
107.000,-9.400,
108.000,-8.900,
109.000,-8.400,
110.000,-7.900,
111.000,-7.500,
112.000,-7.100,
113.000,-6.800,
114.000,-6.400,
115.000,-6.200,
116.000,-5.900,
117.000,-5.700,
118.000,-5.500,
119.000,-5.300,
120.000,-5.200,
121.000,-5.000,
122.000,-4.900,
123.000,-4.800,
124.000,-4.700,
125.000,-4.700,
126.000,-4.600,
127.000,-4.600,
128.000,-4.600,
129.000,-4.500,
130.000,-4.500,
131.000,-4.500,
132.000,-4.500,
133.000,-4.500,
134.000,-4.400,
135.000,-4.400,
136.000,-4.400,
137.000,-4.400,
138.000,-4.400,
139.000,-4.500,
140.000,-4.500,
141.000,-4.500,
142.000,-4.600,
143.000,-4.600,
144.000,-4.600,
145.000,-4.700,
146.000,-4.700,
147.000,-4.700,
148.000,-4.800,
149.000,-4.800,
150.000,-4.700,
151.000,-4.700,
152.000,-4.600,
153.000,-4.500,
154.000,-4.400,
155.000,-4.200,
156.000,-4.000,
157.000,-3.900,
158.000,-3.700,
159.000,-3.400,
160.000,-3.200,
161.000,-3.000,
162.000,-2.800,
163.000,-2.600,
164.000,-2.400,
165.000,-2.200,
166.000,-2.000,
167.000,-1.800,
168.000,-1.600,
169.000,-1.400,
170.000,-1.200,
171.000,-1.000,
172.000,-0.900,
173.000,-0.700,
174.000,-0.600,
175.000,-0.500,
176.000,-0.400,
177.000,-0.300,
178.000,-0.300,
179.000,-0.300,
ENDFIL:,EOF
