REVNUM:,NSMA WG16.99.050
REVDAT:,19990520
ANTMAN:,KATHREIN
MODNUM:,740126
DESCR1:,Omni
DESCR2:,6.5 dBd - Vertical polarization
DESCR3:,360 degree
DTDATA:,19950101
LOWFRQ:,929
HGHFRQ:,932
GUNITS:,DBD/DBR
MDGAIN:,6.5
AZWIDT:,360
ELWIDT:,11.5
ELTILT:,0.0
ANTLEN:,1.40
ANTWID:,0.02
ANTDEP:,0.02
ANTWGT:,1.2
PATTYP:,TYPICAL
NOFREQ:,1
PATFRE:,930.0
NUMCUT:,2
PATCUT:,AZ
POLARI:,V/V
NUPOIN:,360
FSTLST:,-180,179
-180.000,0.000,
-179.000,0.000,
-178.000,0.000,
-177.000,0.000,
-176.000,0.000,
-175.000,0.000,
-174.000,0.000,
-173.000,0.000,
-172.000,0.000,
-171.000,0.000,
-170.000,0.000,
-169.000,0.000,
-168.000,0.000,
-167.000,0.000,
-166.000,0.000,
-165.000,0.000,
-164.000,0.000,
-163.000,0.000,
-162.000,0.000,
-161.000,0.000,
-160.000,0.000,
-159.000,0.000,
-158.000,0.000,
-157.000,0.000,
-156.000,0.000,
-155.000,0.000,
-154.000,0.000,
-153.000,0.000,
-152.000,0.000,
-151.000,0.000,
-150.000,0.000,
-149.000,0.000,
-148.000,0.000,
-147.000,0.000,
-146.000,0.000,
-145.000,0.000,
-144.000,0.000,
-143.000,0.000,
-142.000,0.000,
-141.000,0.000,
-140.000,0.000,
-139.000,0.000,
-138.000,0.000,
-137.000,0.000,
-136.000,0.000,
-135.000,0.000,
-134.000,0.000,
-133.000,0.000,
-132.000,0.000,
-131.000,0.000,
-130.000,0.000,
-129.000,0.000,
-128.000,0.000,
-127.000,0.000,
-126.000,0.000,
-125.000,0.000,
-124.000,0.000,
-123.000,0.000,
-122.000,0.000,
-121.000,0.000,
-120.000,0.000,
-119.000,0.000,
-118.000,0.000,
-117.000,0.000,
-116.000,0.000,
-115.000,0.000,
-114.000,0.000,
-113.000,0.000,
-112.000,0.000,
-111.000,0.000,
-110.000,0.000,
-109.000,0.000,
-108.000,0.000,
-107.000,0.000,
-106.000,0.000,
-105.000,0.000,
-104.000,0.000,
-103.000,0.000,
-102.000,0.000,
-101.000,0.000,
-100.000,0.000,
-99.000,0.000,
-98.000,0.000,
-97.000,0.000,
-96.000,0.000,
-95.000,0.000,
-94.000,0.000,
-93.000,0.000,
-92.000,0.000,
-91.000,0.000,
-90.000,0.000,
-89.000,0.000,
-88.000,0.000,
-87.000,0.000,
-86.000,0.000,
-85.000,0.000,
-84.000,0.000,
-83.000,0.000,
-82.000,0.000,
-81.000,0.000,
-80.000,0.000,
-79.000,0.000,
-78.000,0.000,
-77.000,0.000,
-76.000,0.000,
-75.000,0.000,
-74.000,0.000,
-73.000,0.000,
-72.000,0.000,
-71.000,0.000,
-70.000,0.000,
-69.000,0.000,
-68.000,0.000,
-67.000,0.000,
-66.000,0.000,
-65.000,0.000,
-64.000,0.000,
-63.000,0.000,
-62.000,0.000,
-61.000,0.000,
-60.000,0.000,
-59.000,0.000,
-58.000,0.000,
-57.000,0.000,
-56.000,0.000,
-55.000,0.000,
-54.000,0.000,
-53.000,0.000,
-52.000,0.000,
-51.000,0.000,
-50.000,0.000,
-49.000,0.000,
-48.000,0.000,
-47.000,0.000,
-46.000,0.000,
-45.000,0.000,
-44.000,0.000,
-43.000,0.000,
-42.000,0.000,
-41.000,0.000,
-40.000,0.000,
-39.000,0.000,
-38.000,0.000,
-37.000,0.000,
-36.000,0.000,
-35.000,0.000,
-34.000,0.000,
-33.000,0.000,
-32.000,0.000,
-31.000,0.000,
-30.000,0.000,
-29.000,0.000,
-28.000,0.000,
-27.000,0.000,
-26.000,0.000,
-25.000,0.000,
-24.000,0.000,
-23.000,0.000,
-22.000,0.000,
-21.000,0.000,
-20.000,0.000,
-19.000,0.000,
-18.000,0.000,
-17.000,0.000,
-16.000,0.000,
-15.000,0.000,
-14.000,0.000,
-13.000,0.000,
-12.000,0.000,
-11.000,0.000,
-10.000,0.000,
-9.000,0.000,
-8.000,0.000,
-7.000,0.000,
-6.000,0.000,
-5.000,0.000,
-4.000,0.000,
-3.000,0.000,
-2.000,0.000,
-1.000,0.000,
0.000,0.000,
1.000,0.000,
2.000,0.000,
3.000,0.000,
4.000,0.000,
5.000,0.000,
6.000,0.000,
7.000,0.000,
8.000,0.000,
9.000,0.000,
10.000,0.000,
11.000,0.000,
12.000,0.000,
13.000,0.000,
14.000,0.000,
15.000,0.000,
16.000,0.000,
17.000,0.000,
18.000,0.000,
19.000,0.000,
20.000,0.000,
21.000,0.000,
22.000,0.000,
23.000,0.000,
24.000,0.000,
25.000,0.000,
26.000,0.000,
27.000,0.000,
28.000,0.000,
29.000,0.000,
30.000,0.000,
31.000,0.000,
32.000,0.000,
33.000,0.000,
34.000,0.000,
35.000,0.000,
36.000,0.000,
37.000,0.000,
38.000,0.000,
39.000,0.000,
40.000,0.000,
41.000,0.000,
42.000,0.000,
43.000,0.000,
44.000,0.000,
45.000,0.000,
46.000,0.000,
47.000,0.000,
48.000,0.000,
49.000,0.000,
50.000,0.000,
51.000,0.000,
52.000,0.000,
53.000,0.000,
54.000,0.000,
55.000,0.000,
56.000,0.000,
57.000,0.000,
58.000,0.000,
59.000,0.000,
60.000,0.000,
61.000,0.000,
62.000,0.000,
63.000,0.000,
64.000,0.000,
65.000,0.000,
66.000,0.000,
67.000,0.000,
68.000,0.000,
69.000,0.000,
70.000,0.000,
71.000,0.000,
72.000,0.000,
73.000,0.000,
74.000,0.000,
75.000,0.000,
76.000,0.000,
77.000,0.000,
78.000,0.000,
79.000,0.000,
80.000,0.000,
81.000,0.000,
82.000,0.000,
83.000,0.000,
84.000,0.000,
85.000,0.000,
86.000,0.000,
87.000,0.000,
88.000,0.000,
89.000,0.000,
90.000,0.000,
91.000,0.000,
92.000,0.000,
93.000,0.000,
94.000,0.000,
95.000,0.000,
96.000,0.000,
97.000,0.000,
98.000,0.000,
99.000,0.000,
100.000,0.000,
101.000,0.000,
102.000,0.000,
103.000,0.000,
104.000,0.000,
105.000,0.000,
106.000,0.000,
107.000,0.000,
108.000,0.000,
109.000,0.000,
110.000,0.000,
111.000,0.000,
112.000,0.000,
113.000,0.000,
114.000,0.000,
115.000,0.000,
116.000,0.000,
117.000,0.000,
118.000,0.000,
119.000,0.000,
120.000,0.000,
121.000,0.000,
122.000,0.000,
123.000,0.000,
124.000,0.000,
125.000,0.000,
126.000,0.000,
127.000,0.000,
128.000,0.000,
129.000,0.000,
130.000,0.000,
131.000,0.000,
132.000,0.000,
133.000,0.000,
134.000,0.000,
135.000,0.000,
136.000,0.000,
137.000,0.000,
138.000,0.000,
139.000,0.000,
140.000,0.000,
141.000,0.000,
142.000,0.000,
143.000,0.000,
144.000,0.000,
145.000,0.000,
146.000,0.000,
147.000,0.000,
148.000,0.000,
149.000,0.000,
150.000,0.000,
151.000,0.000,
152.000,0.000,
153.000,0.000,
154.000,0.000,
155.000,0.000,
156.000,0.000,
157.000,0.000,
158.000,0.000,
159.000,0.000,
160.000,0.000,
161.000,0.000,
162.000,0.000,
163.000,0.000,
164.000,0.000,
165.000,0.000,
166.000,0.000,
167.000,0.000,
168.000,0.000,
169.000,0.000,
170.000,0.000,
171.000,0.000,
172.000,0.000,
173.000,0.000,
174.000,0.000,
175.000,0.000,
176.000,0.000,
177.000,0.000,
178.000,0.000,
179.000,0.000,
PATCUT:,EL
POLARI:,V/V
NUPOIN:,360
FSTLST:,-180,179
-180.000,-0.034,
-179.000,0.000,
-178.000,-0.110,
-177.000,-0.449,
-176.000,-0.958,
-175.000,-1.604,
-174.000,-2.595,
-173.000,-3.724,
-172.000,-5.092,
-171.000,-6.675,
-170.000,-8.109,
-169.000,-9.604,
-168.000,-10.555,
-167.000,-10.898,
-166.000,-10.942,
-165.000,-10.681,
-164.000,-10.593,
-163.000,-10.727,
-162.000,-11.486,
-161.000,-11.885,
-160.000,-12.547,
-159.000,-16.108,
-158.000,-18.600,
-157.000,-22.735,
-156.000,-27.812,
-155.000,-26.761,
-154.000,-22.276,
-153.000,-19.213,
-152.000,-17.323,
-151.000,-16.433,
-150.000,-15.546,
-149.000,-15.209,
-148.000,-15.039,
-147.000,-15.227,
-146.000,-15.592,
-145.000,-15.979,
-144.000,-16.525,
-143.000,-17.229,
-142.000,-18.555,
-141.000,-19.912,
-140.000,-21.874,
-139.000,-24.411,
-138.000,-25.970,
-137.000,-27.548,
-136.000,-27.839,
-135.000,-25.484,
-134.000,-22.682,
-133.000,-20.526,
-132.000,-18.810,
-131.000,-17.533,
-130.000,-16.585,
-129.000,-15.943,
-128.000,-15.469,
-127.000,-15.301,
-126.000,-15.247,
-125.000,-15.371,
-124.000,-15.732,
-123.000,-16.033,
-122.000,-16.644,
-121.000,-17.318,
-120.000,-18.207,
-119.000,-19.062,
-118.000,-19.879,
-117.000,-20.391,
-116.000,-20.500,
-115.000,-20.546,
-114.000,-20.412,
-113.000,-19.812,
-112.000,-19.227,
-111.000,-18.563,
-110.000,-18.006,
-109.000,-17.514,
-108.000,-17.098,
-107.000,-16.995,
-106.000,-16.668,
-105.000,-16.836,
-104.000,-16.906,
-103.000,-17.021,
-102.000,-17.253,
-101.000,-17.645,
-100.000,-18.302,
-99.000,-18.876,
-98.000,-19.726,
-97.000,-20.401,
-96.000,-21.805,
-95.000,-23.266,
-94.000,-25.172,
-93.000,-27.253,
-92.000,-30.637,
-91.000,-34.300,
-90.000,-35.576,
-89.000,-34.300,
-88.000,-30.637,
-87.000,-27.253,
-86.000,-25.172,
-85.000,-23.266,
-84.000,-21.805,
-83.000,-20.401,
-82.000,-19.726,
-81.000,-18.876,
-80.000,-18.302,
-79.000,-17.645,
-78.000,-17.253,
-77.000,-17.021,
-76.000,-16.906,
-75.000,-16.836,
-74.000,-16.668,
-73.000,-16.995,
-72.000,-17.098,
-71.000,-17.514,
-70.000,-18.006,
-69.000,-18.563,
-68.000,-19.227,
-67.000,-19.812,
-66.000,-20.412,
-65.000,-20.546,
-64.000,-20.500,
-63.000,-20.391,
-62.000,-19.879,
-61.000,-19.062,
-60.000,-18.207,
-59.000,-17.318,
-58.000,-16.644,
-57.000,-16.033,
-56.000,-15.732,
-55.000,-15.371,
-54.000,-15.247,
-53.000,-15.301,
-52.000,-15.469,
-51.000,-15.943,
-50.000,-16.585,
-49.000,-17.533,
-48.000,-18.810,
-47.000,-20.526,
-46.000,-22.682,
-45.000,-25.484,
-44.000,-27.839,
-43.000,-27.548,
-42.000,-25.970,
-41.000,-24.411,
-40.000,-21.874,
-39.000,-19.912,
-38.000,-18.555,
-37.000,-17.229,
-36.000,-16.525,
-35.000,-15.979,
-34.000,-15.592,
-33.000,-15.227,
-32.000,-15.039,
-31.000,-15.209,
-30.000,-15.546,
-29.000,-16.433,
-28.000,-17.323,
-27.000,-19.213,
-26.000,-22.276,
-25.000,-26.761,
-24.000,-27.812,
-23.000,-22.735,
-22.000,-18.600,
-21.000,-16.108,
-20.000,-12.547,
-19.000,-11.885,
-18.000,-11.486,
-17.000,-10.727,
-16.000,-10.593,
-15.000,-10.681,
-14.000,-10.942,
-13.000,-10.898,
-12.000,-10.555,
-11.000,-9.604,
-10.000,-8.109,
-9.000,-6.675,
-8.000,-5.092,
-7.000,-3.724,
-6.000,-2.595,
-5.000,-1.604,
-4.000,-0.958,
-3.000,-0.449,
-2.000,-0.110,
-1.000,0.000,
0.000,-0.034,
1.000,-0.259,
2.000,-0.631,
3.000,-1.262,
4.000,-2.051,
5.000,-3.024,
6.000,-4.305,
7.000,-5.769,
8.000,-7.592,
9.000,-9.555,
10.000,-11.528,
11.000,-13.033,
12.000,-13.393,
13.000,-12.893,
14.000,-12.116,
15.000,-11.302,
16.000,-10.802,
17.000,-10.565,
18.000,-10.837,
19.000,-11.379,
20.000,-12.430,
21.000,-13.963,
22.000,-16.677,
23.000,-20.115,
24.000,-21.059,
25.000,-20.367,
26.000,-18.776,
27.000,-15.409,
28.000,-13.222,
29.000,-11.527,
30.000,-10.482,
31.000,-9.885,
32.000,-9.548,
33.000,-9.479,
34.000,-9.734,
35.000,-10.408,
36.000,-11.308,
37.000,-12.699,
38.000,-14.507,
39.000,-17.092,
40.000,-21.212,
41.000,-21.975,
42.000,-22.037,
43.000,-21.288,
44.000,-17.829,
45.000,-15.089,
46.000,-13.393,
47.000,-11.890,
48.000,-11.022,
49.000,-10.420,
50.000,-9.988,
51.000,-9.704,
52.000,-9.612,
53.000,-9.716,
54.000,-9.931,
55.000,-10.207,
56.000,-10.659,
57.000,-11.295,
58.000,-12.027,
59.000,-12.847,
60.000,-13.832,
61.000,-14.885,
62.000,-16.034,
63.000,-17.230,
64.000,-18.362,
65.000,-19.227,
66.000,-19.279,
67.000,-19.588,
68.000,-19.238,
69.000,-18.635,
70.000,-18.261,
71.000,-17.541,
72.000,-17.230,
73.000,-16.651,
74.000,-16.450,
75.000,-16.386,
76.000,-16.238,
77.000,-16.272,
78.000,-16.538,
79.000,-16.806,
80.000,-17.042,
81.000,-17.666,
82.000,-18.378,
83.000,-19.339,
84.000,-20.135,
85.000,-21.529,
86.000,-23.457,
87.000,-24.660,
88.000,-25.376,
89.000,-26.991,
90.000,-26.783,
91.000,-26.991,
92.000,-25.376,
93.000,-24.660,
94.000,-23.457,
95.000,-21.529,
96.000,-20.135,
97.000,-19.339,
98.000,-18.378,
99.000,-17.666,
100.000,-17.042,
101.000,-16.806,
102.000,-16.538,
103.000,-16.272,
104.000,-16.238,
105.000,-16.386,
106.000,-16.450,
107.000,-16.651,
108.000,-17.230,
109.000,-17.541,
110.000,-18.261,
111.000,-18.635,
112.000,-19.238,
113.000,-19.588,
114.000,-19.279,
115.000,-19.227,
116.000,-18.362,
117.000,-17.230,
118.000,-16.034,
119.000,-14.885,
120.000,-13.832,
121.000,-12.847,
122.000,-12.027,
123.000,-11.295,
124.000,-10.659,
125.000,-10.207,
126.000,-9.931,
127.000,-9.716,
128.000,-9.612,
129.000,-9.704,
130.000,-9.988,
131.000,-10.420,
132.000,-11.022,
133.000,-11.890,
134.000,-13.393,
135.000,-15.089,
136.000,-17.829,
137.000,-21.288,
138.000,-22.037,
139.000,-21.975,
140.000,-21.212,
141.000,-17.092,
142.000,-14.507,
143.000,-12.699,
144.000,-11.308,
145.000,-10.408,
146.000,-9.734,
147.000,-9.479,
148.000,-9.548,
149.000,-9.885,
150.000,-10.482,
151.000,-11.527,
152.000,-13.222,
153.000,-15.409,
154.000,-18.776,
155.000,-20.367,
156.000,-21.059,
157.000,-20.115,
158.000,-16.677,
159.000,-13.963,
160.000,-12.430,
161.000,-11.379,
162.000,-10.837,
163.000,-10.565,
164.000,-10.802,
165.000,-11.302,
166.000,-12.116,
167.000,-12.893,
168.000,-13.393,
169.000,-13.033,
170.000,-11.528,
171.000,-9.555,
172.000,-7.592,
173.000,-5.769,
174.000,-4.305,
175.000,-3.024,
176.000,-2.051,
177.000,-1.262,
178.000,-0.631,
179.000,-0.259,
ENDFIL:,EOF
