REVNUM:,NSMA WG16.99.050
REVDAT:,19990520
ANTMAN:,KATHREIN
MODNUM:,741327
DESCR1:,Panel
DESCR2:,14.85 dBd
DESCR3:,65 degree
DTDATA:,19990208
LOWFRQ:,870
HGHFRQ:,960
GUNITS:,DBD/DBR
MDGAIN:,14.9
AZWIDT:,65.0
ELWIDT:,9.5
ELTILT:,0.0
ANTLEN:,1.94
ANTWID:,0.26
ANTDEP:,0.12
ANTWGT:,19.0
PATTYP:,TYPICAL
NOFREQ:,1
PATFRE:,902.5
NUMCUT:,2
PATCUT:,AZ
POLARI:,V/V
NUPOIN:,360
FSTLST:,-180,179
-180.000,-30.200,
-179.000,-30.300,
-178.000,-30.300,
-177.000,-30.300,
-176.000,-30.500,
-175.000,-30.600,
-174.000,-30.700,
-173.000,-30.800,
-172.000,-30.900,
-171.000,-31.000,
-170.000,-31.300,
-169.000,-31.400,
-168.000,-31.700,
-167.000,-32.100,
-166.000,-32.300,
-165.000,-32.600,
-164.000,-32.800,
-163.000,-33.300,
-162.000,-33.600,
-161.000,-33.800,
-160.000,-34.500,
-159.000,-34.600,
-158.000,-35.100,
-157.000,-35.200,
-156.000,-35.700,
-155.000,-35.800,
-154.000,-35.900,
-153.000,-36.100,
-152.000,-35.800,
-151.000,-35.500,
-150.000,-35.400,
-149.000,-35.100,
-148.000,-34.500,
-147.000,-34.200,
-146.000,-33.800,
-145.000,-33.100,
-144.000,-32.600,
-143.000,-32.200,
-142.000,-31.700,
-141.000,-31.200,
-140.000,-30.600,
-139.000,-30.200,
-138.000,-29.600,
-137.000,-29.300,
-136.000,-28.800,
-135.000,-28.400,
-134.000,-28.100,
-133.000,-27.700,
-132.000,-27.300,
-131.000,-26.900,
-130.000,-26.700,
-129.000,-26.200,
-128.000,-26.000,
-127.000,-25.600,
-126.000,-25.300,
-125.000,-25.000,
-124.000,-24.700,
-123.000,-24.400,
-122.000,-24.100,
-121.000,-23.900,
-120.000,-23.600,
-119.000,-23.300,
-118.000,-23.100,
-117.000,-22.900,
-116.000,-22.600,
-115.000,-22.400,
-114.000,-22.100,
-113.000,-21.900,
-112.000,-21.700,
-111.000,-21.400,
-110.000,-21.200,
-109.000,-21.000,
-108.000,-20.700,
-107.000,-20.500,
-106.000,-20.200,
-105.000,-20.000,
-104.000,-19.700,
-103.000,-19.500,
-102.000,-19.300,
-101.000,-19.000,
-100.000,-18.800,
-99.000,-18.600,
-98.000,-18.300,
-97.000,-18.100,
-96.000,-17.800,
-95.000,-17.600,
-94.000,-17.400,
-93.000,-17.100,
-92.000,-16.900,
-91.000,-16.600,
-90.000,-16.400,
-89.000,-16.100,
-88.000,-15.900,
-87.000,-15.600,
-86.000,-15.400,
-85.000,-15.100,
-84.000,-14.900,
-83.000,-14.600,
-82.000,-14.300,
-81.000,-14.100,
-80.000,-13.800,
-79.000,-13.600,
-78.000,-13.300,
-77.000,-13.100,
-76.000,-12.800,
-75.000,-12.500,
-74.000,-12.300,
-73.000,-12.000,
-72.000,-11.700,
-71.000,-11.500,
-70.000,-11.200,
-69.000,-10.900,
-68.000,-10.700,
-67.000,-10.400,
-66.000,-10.200,
-65.000,-9.900,
-64.000,-9.600,
-63.000,-9.400,
-62.000,-9.100,
-61.000,-8.900,
-60.000,-8.600,
-59.000,-8.400,
-58.000,-8.100,
-57.000,-7.900,
-56.000,-7.600,
-55.000,-7.400,
-54.000,-7.200,
-53.000,-6.900,
-52.000,-6.700,
-51.000,-6.400,
-50.000,-6.200,
-49.000,-6.000,
-48.000,-5.800,
-47.000,-5.600,
-46.000,-5.300,
-45.000,-5.100,
-44.000,-4.900,
-43.000,-4.700,
-42.000,-4.500,
-41.000,-4.300,
-40.000,-4.100,
-39.000,-3.900,
-38.000,-3.700,
-37.000,-3.500,
-36.000,-3.300,
-35.000,-3.200,
-34.000,-3.000,
-33.000,-2.800,
-32.000,-2.700,
-31.000,-2.500,
-30.000,-2.300,
-29.000,-2.200,
-28.000,-2.100,
-27.000,-1.900,
-26.000,-1.800,
-25.000,-1.600,
-24.000,-1.500,
-23.000,-1.400,
-22.000,-1.300,
-21.000,-1.200,
-20.000,-1.100,
-19.000,-1.000,
-18.000,-0.900,
-17.000,-0.800,
-16.000,-0.700,
-15.000,-0.600,
-14.000,-0.500,
-13.000,-0.500,
-12.000,-0.400,
-11.000,-0.300,
-10.000,-0.300,
-9.000,-0.200,
-8.000,-0.200,
-7.000,-0.100,
-6.000,-0.100,
-5.000,-0.100,
-4.000,0.000,
-3.000,0.000,
-2.000,0.000,
-1.000,0.000,
0.000,0.000,
1.000,0.000,
2.000,0.000,
3.000,0.000,
4.000,-0.100,
5.000,-0.100,
6.000,-0.100,
7.000,-0.200,
8.000,-0.200,
9.000,-0.200,
10.000,-0.300,
11.000,-0.300,
12.000,-0.400,
13.000,-0.500,
14.000,-0.600,
15.000,-0.600,
16.000,-0.700,
17.000,-0.800,
18.000,-0.900,
19.000,-1.000,
20.000,-1.100,
21.000,-1.200,
22.000,-1.300,
23.000,-1.500,
24.000,-1.600,
25.000,-1.700,
26.000,-1.800,
27.000,-2.000,
28.000,-2.100,
29.000,-2.300,
30.000,-2.400,
31.000,-2.600,
32.000,-2.700,
33.000,-2.900,
34.000,-3.000,
35.000,-3.200,
36.000,-3.400,
37.000,-3.600,
38.000,-3.700,
39.000,-3.900,
40.000,-4.100,
41.000,-4.300,
42.000,-4.500,
43.000,-4.700,
44.000,-4.900,
45.000,-5.100,
46.000,-5.300,
47.000,-5.600,
48.000,-5.800,
49.000,-6.000,
50.000,-6.200,
51.000,-6.400,
52.000,-6.700,
53.000,-6.900,
54.000,-7.100,
55.000,-7.400,
56.000,-7.600,
57.000,-7.900,
58.000,-8.100,
59.000,-8.400,
60.000,-8.600,
61.000,-8.800,
62.000,-9.100,
63.000,-9.300,
64.000,-9.600,
65.000,-9.800,
66.000,-10.100,
67.000,-10.400,
68.000,-10.600,
69.000,-10.900,
70.000,-11.100,
71.000,-11.400,
72.000,-11.700,
73.000,-11.900,
74.000,-12.200,
75.000,-12.400,
76.000,-12.700,
77.000,-13.000,
78.000,-13.200,
79.000,-13.500,
80.000,-13.800,
81.000,-14.000,
82.000,-14.300,
83.000,-14.500,
84.000,-14.800,
85.000,-15.000,
86.000,-15.300,
87.000,-15.500,
88.000,-15.800,
89.000,-16.000,
90.000,-16.300,
91.000,-16.600,
92.000,-16.800,
93.000,-17.000,
94.000,-17.300,
95.000,-17.600,
96.000,-17.800,
97.000,-18.000,
98.000,-18.200,
99.000,-18.500,
100.000,-18.700,
101.000,-18.900,
102.000,-19.200,
103.000,-19.400,
104.000,-19.600,
105.000,-19.800,
106.000,-20.100,
107.000,-20.300,
108.000,-20.500,
109.000,-20.700,
110.000,-20.900,
111.000,-21.200,
112.000,-21.400,
113.000,-21.600,
114.000,-21.800,
115.000,-22.100,
116.000,-22.300,
117.000,-22.500,
118.000,-22.800,
119.000,-23.000,
120.000,-23.200,
121.000,-23.500,
122.000,-23.800,
123.000,-24.000,
124.000,-24.300,
125.000,-24.500,
126.000,-24.800,
127.000,-25.100,
128.000,-25.300,
129.000,-25.700,
130.000,-26.000,
131.000,-26.300,
132.000,-26.600,
133.000,-26.900,
134.000,-27.300,
135.000,-27.700,
136.000,-28.000,
137.000,-28.400,
138.000,-28.900,
139.000,-29.200,
140.000,-29.700,
141.000,-30.100,
142.000,-30.500,
143.000,-31.000,
144.000,-31.300,
145.000,-31.800,
146.000,-32.100,
147.000,-32.400,
148.000,-32.900,
149.000,-33.200,
150.000,-33.500,
151.000,-33.800,
152.000,-33.900,
153.000,-34.000,
154.000,-34.300,
155.000,-34.000,
156.000,-34.200,
157.000,-33.900,
158.000,-33.700,
159.000,-33.600,
160.000,-33.400,
161.000,-33.200,
162.000,-32.900,
163.000,-32.800,
164.000,-32.500,
165.000,-32.200,
166.000,-32.000,
167.000,-31.700,
168.000,-31.600,
169.000,-31.300,
170.000,-31.100,
171.000,-31.000,
172.000,-30.800,
173.000,-30.600,
174.000,-30.700,
175.000,-30.500,
176.000,-30.400,
177.000,-30.300,
178.000,-30.300,
179.000,-30.200,
PATCUT:,EL
POLARI:,V/V
NUPOIN:,360
FSTLST:,-180,179
-180.000,-30.300,
-179.000,-30.800,
-178.000,-31.600,
-177.000,-32.700,
-176.000,-34.000,
-175.000,-35.400,
-174.000,-36.600,
-173.000,-37.500,
-172.000,-37.700,
-171.000,-37.500,
-170.000,-36.500,
-169.000,-36.200,
-168.000,-35.700,
-167.000,-35.800,
-166.000,-36.300,
-165.000,-36.600,
-164.000,-37.300,
-163.000,-38.200,
-162.000,-39.200,
-161.000,-41.000,
-160.000,-43.200,
-159.000,-46.300,
-158.000,-49.100,
-157.000,-50.700,
-156.000,-48.200,
-155.000,-45.100,
-154.000,-42.900,
-153.000,-41.500,
-152.000,-41.000,
-151.000,-40.900,
-150.000,-40.600,
-149.000,-41.300,
-148.000,-42.200,
-147.000,-43.500,
-146.000,-45.100,
-145.000,-47.200,
-144.000,-50.800,
-143.000,-55.600,
-142.000,-64.600,
-141.000,-58.300,
-140.000,-51.000,
-139.000,-46.300,
-138.000,-43.700,
-137.000,-41.800,
-136.000,-40.000,
-135.000,-39.100,
-134.000,-37.800,
-133.000,-37.200,
-132.000,-36.700,
-131.000,-36.700,
-130.000,-36.400,
-129.000,-36.500,
-128.000,-37.100,
-127.000,-37.700,
-126.000,-38.300,
-125.000,-38.600,
-124.000,-39.500,
-123.000,-39.700,
-122.000,-39.600,
-121.000,-39.100,
-120.000,-38.500,
-119.000,-37.700,
-118.000,-36.800,
-117.000,-36.300,
-116.000,-35.600,
-115.000,-35.100,
-114.000,-34.700,
-113.000,-34.000,
-112.000,-33.400,
-111.000,-32.800,
-110.000,-32.100,
-109.000,-31.400,
-108.000,-30.700,
-107.000,-30.000,
-106.000,-29.400,
-105.000,-28.700,
-104.000,-28.200,
-103.000,-27.700,
-102.000,-27.100,
-101.000,-26.700,
-100.000,-26.300,
-99.000,-25.900,
-98.000,-25.500,
-97.000,-25.100,
-96.000,-24.800,
-95.000,-24.500,
-94.000,-24.200,
-93.000,-24.000,
-92.000,-23.700,
-91.000,-23.400,
-90.000,-23.200,
-89.000,-23.000,
-88.000,-22.700,
-87.000,-22.500,
-86.000,-22.200,
-85.000,-21.900,
-84.000,-21.700,
-83.000,-21.400,
-82.000,-21.100,
-81.000,-20.900,
-80.000,-20.600,
-79.000,-20.400,
-78.000,-20.200,
-77.000,-20.100,
-76.000,-19.900,
-75.000,-19.800,
-74.000,-19.700,
-73.000,-19.700,
-72.000,-19.700,
-71.000,-19.800,
-70.000,-20.000,
-69.000,-20.200,
-68.000,-20.500,
-67.000,-20.900,
-66.000,-21.400,
-65.000,-22.000,
-64.000,-22.600,
-63.000,-23.400,
-62.000,-24.300,
-61.000,-25.200,
-60.000,-26.200,
-59.000,-27.000,
-58.000,-27.500,
-57.000,-27.600,
-56.000,-27.300,
-55.000,-26.900,
-54.000,-26.300,
-53.000,-25.800,
-52.000,-25.600,
-51.000,-25.600,
-50.000,-25.900,
-49.000,-26.600,
-48.000,-27.700,
-47.000,-29.600,
-46.000,-32.300,
-45.000,-36.100,
-44.000,-36.500,
-43.000,-32.600,
-42.000,-29.000,
-41.000,-26.700,
-40.000,-24.800,
-39.000,-23.700,
-38.000,-23.100,
-37.000,-23.000,
-36.000,-23.500,
-35.000,-24.600,
-34.000,-26.900,
-33.000,-31.200,
-32.000,-43.200,
-31.000,-34.000,
-30.000,-27.000,
-29.000,-23.000,
-28.000,-20.400,
-27.000,-18.700,
-26.000,-17.600,
-25.000,-17.000,
-24.000,-16.900,
-23.000,-17.300,
-22.000,-18.300,
-21.000,-19.900,
-20.000,-22.400,
-19.000,-25.200,
-18.000,-25.900,
-17.000,-23.400,
-16.000,-20.900,
-15.000,-19.000,
-14.000,-18.000,
-13.000,-17.200,
-12.000,-16.600,
-11.000,-15.300,
-10.000,-13.400,
-9.000,-11.000,
-8.000,-8.600,
-7.000,-6.600,
-6.000,-4.800,
-5.000,-3.300,
-4.000,-2.100,
-3.000,-1.200,
-2.000,-0.600,
-1.000,-0.200,
0.000,0.000,
1.000,-0.100,
2.000,-0.400,
3.000,-1.100,
4.000,-1.900,
5.000,-3.200,
6.000,-4.800,
7.000,-7.000,
8.000,-9.800,
9.000,-13.600,
10.000,-19.500,
11.000,-28.100,
12.000,-22.600,
13.000,-18.700,
14.000,-17.000,
15.000,-16.700,
16.000,-17.500,
17.000,-19.200,
18.000,-22.200,
19.000,-25.700,
20.000,-25.000,
21.000,-21.400,
22.000,-18.700,
23.000,-17.100,
24.000,-16.200,
25.000,-16.000,
26.000,-16.500,
27.000,-17.500,
28.000,-19.400,
29.000,-22.500,
30.000,-28.000,
31.000,-43.400,
32.000,-28.700,
33.000,-23.000,
34.000,-20.100,
35.000,-18.400,
36.000,-17.400,
37.000,-16.900,
38.000,-16.900,
39.000,-17.300,
40.000,-18.100,
41.000,-19.200,
42.000,-20.800,
43.000,-22.800,
44.000,-25.000,
45.000,-26.800,
46.000,-26.800,
47.000,-25.600,
48.000,-24.200,
49.000,-23.100,
50.000,-22.400,
51.000,-22.200,
52.000,-22.300,
53.000,-22.800,
54.000,-23.600,
55.000,-24.800,
56.000,-26.600,
57.000,-28.400,
58.000,-29.800,
59.000,-29.400,
60.000,-27.600,
61.000,-25.500,
62.000,-23.600,
63.000,-22.100,
64.000,-20.900,
65.000,-19.900,
66.000,-19.100,
67.000,-18.500,
68.000,-18.000,
69.000,-17.600,
70.000,-17.300,
71.000,-17.200,
72.000,-17.100,
73.000,-17.000,
74.000,-17.100,
75.000,-17.100,
76.000,-17.300,
77.000,-17.400,
78.000,-17.600,
79.000,-17.900,
80.000,-18.200,
81.000,-18.500,
82.000,-18.800,
83.000,-19.200,
84.000,-19.500,
85.000,-19.900,
86.000,-20.300,
87.000,-20.700,
88.000,-21.200,
89.000,-21.500,
90.000,-22.000,
91.000,-22.400,
92.000,-22.900,
93.000,-23.300,
94.000,-23.900,
95.000,-24.400,
96.000,-24.900,
97.000,-25.500,
98.000,-26.100,
99.000,-26.800,
100.000,-27.600,
101.000,-28.300,
102.000,-29.200,
103.000,-29.900,
104.000,-30.900,
105.000,-31.800,
106.000,-32.700,
107.000,-33.600,
108.000,-34.200,
109.000,-34.800,
110.000,-34.500,
111.000,-33.900,
112.000,-33.300,
113.000,-32.200,
114.000,-31.400,
115.000,-30.600,
116.000,-29.900,
117.000,-29.200,
118.000,-28.700,
119.000,-28.400,
120.000,-28.300,
121.000,-28.400,
122.000,-28.700,
123.000,-29.100,
124.000,-29.800,
125.000,-30.900,
126.000,-32.400,
127.000,-34.400,
128.000,-37.300,
129.000,-41.800,
130.000,-51.700,
131.000,-45.500,
132.000,-39.600,
133.000,-36.000,
134.000,-33.600,
135.000,-32.100,
136.000,-31.200,
137.000,-30.500,
138.000,-30.400,
139.000,-30.500,
140.000,-30.900,
141.000,-31.700,
142.000,-32.600,
143.000,-34.300,
144.000,-36.500,
145.000,-39.700,
146.000,-44.700,
147.000,-50.800,
148.000,-49.300,
149.000,-44.300,
150.000,-41.600,
151.000,-39.700,
152.000,-39.200,
153.000,-39.100,
154.000,-39.600,
155.000,-40.400,
156.000,-40.800,
157.000,-40.600,
158.000,-39.400,
159.000,-38.100,
160.000,-37.100,
161.000,-35.900,
162.000,-35.200,
163.000,-34.800,
164.000,-35.000,
165.000,-35.200,
166.000,-35.800,
167.000,-37.000,
168.000,-38.000,
169.000,-38.800,
170.000,-38.900,
171.000,-37.700,
172.000,-36.100,
173.000,-34.700,
174.000,-33.200,
175.000,-32.200,
176.000,-31.200,
177.000,-30.700,
178.000,-30.300,
179.000,-30.200,
ENDFIL:,EOF
