REVNUM:,NSMA WG16.99.050
REVDAT:,19990520
ANTMAN:,KATHREIN
MODNUM:,742155
DESCR1:,Omni
DESCR2:,6.35 dBd - Vertical polarization
DESCR3:,360 degree
DTDATA:,20000807
LOWFRQ:,450
HGHFRQ:,470
GUNITS:,DBD/DBR
MDGAIN:,6.3
AZWIDT:,360
ELWIDT:,12.0
ELTILT:,0.0
ANTLEN:,2.01
ANTWID:,0.05
ANTDEP:,0.05
ANTWGT:,8.0
PATTYP:,TYPICAL
NOFREQ:,1
PATFRE:,450.0
NUMCUT:,2
PATCUT:,AZ
POLARI:,V/V
NUPOIN:,360
FSTLST:,-180,179
-180.000,0.000,
-179.000,0.000,
-178.000,0.000,
-177.000,0.000,
-176.000,0.000,
-175.000,0.000,
-174.000,0.000,
-173.000,0.000,
-172.000,0.000,
-171.000,0.000,
-170.000,0.000,
-169.000,0.000,
-168.000,0.000,
-167.000,0.000,
-166.000,0.000,
-165.000,0.000,
-164.000,0.000,
-163.000,0.000,
-162.000,0.000,
-161.000,0.000,
-160.000,0.000,
-159.000,0.000,
-158.000,0.000,
-157.000,0.000,
-156.000,0.000,
-155.000,0.000,
-154.000,0.000,
-153.000,0.000,
-152.000,0.000,
-151.000,0.000,
-150.000,0.000,
-149.000,0.000,
-148.000,0.000,
-147.000,0.000,
-146.000,0.000,
-145.000,0.000,
-144.000,0.000,
-143.000,0.000,
-142.000,0.000,
-141.000,0.000,
-140.000,0.000,
-139.000,0.000,
-138.000,0.000,
-137.000,0.000,
-136.000,0.000,
-135.000,0.000,
-134.000,0.000,
-133.000,0.000,
-132.000,0.000,
-131.000,0.000,
-130.000,0.000,
-129.000,0.000,
-128.000,0.000,
-127.000,0.000,
-126.000,0.000,
-125.000,0.000,
-124.000,0.000,
-123.000,0.000,
-122.000,0.000,
-121.000,0.000,
-120.000,0.000,
-119.000,0.000,
-118.000,0.000,
-117.000,0.000,
-116.000,0.000,
-115.000,0.000,
-114.000,0.000,
-113.000,0.000,
-112.000,0.000,
-111.000,0.000,
-110.000,0.000,
-109.000,0.000,
-108.000,0.000,
-107.000,0.000,
-106.000,0.000,
-105.000,0.000,
-104.000,0.000,
-103.000,0.000,
-102.000,0.000,
-101.000,0.000,
-100.000,0.000,
-99.000,0.000,
-98.000,0.000,
-97.000,0.000,
-96.000,0.000,
-95.000,0.000,
-94.000,0.000,
-93.000,0.000,
-92.000,0.000,
-91.000,0.000,
-90.000,0.000,
-89.000,0.000,
-88.000,0.000,
-87.000,0.000,
-86.000,0.000,
-85.000,0.000,
-84.000,0.000,
-83.000,0.000,
-82.000,0.000,
-81.000,0.000,
-80.000,0.000,
-79.000,0.000,
-78.000,0.000,
-77.000,0.000,
-76.000,0.000,
-75.000,0.000,
-74.000,0.000,
-73.000,0.000,
-72.000,0.000,
-71.000,0.000,
-70.000,0.000,
-69.000,0.000,
-68.000,0.000,
-67.000,0.000,
-66.000,0.000,
-65.000,0.000,
-64.000,0.000,
-63.000,0.000,
-62.000,0.000,
-61.000,0.000,
-60.000,0.000,
-59.000,0.000,
-58.000,0.000,
-57.000,0.000,
-56.000,0.000,
-55.000,0.000,
-54.000,0.000,
-53.000,0.000,
-52.000,0.000,
-51.000,0.000,
-50.000,0.000,
-49.000,0.000,
-48.000,0.000,
-47.000,0.000,
-46.000,0.000,
-45.000,0.000,
-44.000,0.000,
-43.000,0.000,
-42.000,0.000,
-41.000,0.000,
-40.000,0.000,
-39.000,0.000,
-38.000,0.000,
-37.000,0.000,
-36.000,0.000,
-35.000,0.000,
-34.000,0.000,
-33.000,0.000,
-32.000,0.000,
-31.000,0.000,
-30.000,0.000,
-29.000,0.000,
-28.000,0.000,
-27.000,0.000,
-26.000,0.000,
-25.000,0.000,
-24.000,0.000,
-23.000,0.000,
-22.000,0.000,
-21.000,0.000,
-20.000,0.000,
-19.000,0.000,
-18.000,0.000,
-17.000,0.000,
-16.000,0.000,
-15.000,0.000,
-14.000,0.000,
-13.000,0.000,
-12.000,0.000,
-11.000,0.000,
-10.000,0.000,
-9.000,0.000,
-8.000,0.000,
-7.000,0.000,
-6.000,0.000,
-5.000,0.000,
-4.000,0.000,
-3.000,0.000,
-2.000,0.000,
-1.000,0.000,
0.000,0.000,
1.000,0.000,
2.000,0.000,
3.000,0.000,
4.000,0.000,
5.000,0.000,
6.000,0.000,
7.000,0.000,
8.000,0.000,
9.000,0.000,
10.000,0.000,
11.000,0.000,
12.000,0.000,
13.000,0.000,
14.000,0.000,
15.000,0.000,
16.000,0.000,
17.000,0.000,
18.000,0.000,
19.000,0.000,
20.000,0.000,
21.000,0.000,
22.000,0.000,
23.000,0.000,
24.000,0.000,
25.000,0.000,
26.000,0.000,
27.000,0.000,
28.000,0.000,
29.000,0.000,
30.000,0.000,
31.000,0.000,
32.000,0.000,
33.000,0.000,
34.000,0.000,
35.000,0.000,
36.000,0.000,
37.000,0.000,
38.000,0.000,
39.000,0.000,
40.000,0.000,
41.000,0.000,
42.000,0.000,
43.000,0.000,
44.000,0.000,
45.000,0.000,
46.000,0.000,
47.000,0.000,
48.000,0.000,
49.000,0.000,
50.000,0.000,
51.000,0.000,
52.000,0.000,
53.000,0.000,
54.000,0.000,
55.000,0.000,
56.000,0.000,
57.000,0.000,
58.000,0.000,
59.000,0.000,
60.000,0.000,
61.000,0.000,
62.000,0.000,
63.000,0.000,
64.000,0.000,
65.000,0.000,
66.000,0.000,
67.000,0.000,
68.000,0.000,
69.000,0.000,
70.000,0.000,
71.000,0.000,
72.000,0.000,
73.000,0.000,
74.000,0.000,
75.000,0.000,
76.000,0.000,
77.000,0.000,
78.000,0.000,
79.000,0.000,
80.000,0.000,
81.000,0.000,
82.000,0.000,
83.000,0.000,
84.000,0.000,
85.000,0.000,
86.000,0.000,
87.000,0.000,
88.000,0.000,
89.000,0.000,
90.000,0.000,
91.000,0.000,
92.000,0.000,
93.000,0.000,
94.000,0.000,
95.000,0.000,
96.000,0.000,
97.000,0.000,
98.000,0.000,
99.000,0.000,
100.000,0.000,
101.000,0.000,
102.000,0.000,
103.000,0.000,
104.000,0.000,
105.000,0.000,
106.000,0.000,
107.000,0.000,
108.000,0.000,
109.000,0.000,
110.000,0.000,
111.000,0.000,
112.000,0.000,
113.000,0.000,
114.000,0.000,
115.000,0.000,
116.000,0.000,
117.000,0.000,
118.000,0.000,
119.000,0.000,
120.000,0.000,
121.000,0.000,
122.000,0.000,
123.000,0.000,
124.000,0.000,
125.000,0.000,
126.000,0.000,
127.000,0.000,
128.000,0.000,
129.000,0.000,
130.000,0.000,
131.000,0.000,
132.000,0.000,
133.000,0.000,
134.000,0.000,
135.000,0.000,
136.000,0.000,
137.000,0.000,
138.000,0.000,
139.000,0.000,
140.000,0.000,
141.000,0.000,
142.000,0.000,
143.000,0.000,
144.000,0.000,
145.000,0.000,
146.000,0.000,
147.000,0.000,
148.000,0.000,
149.000,0.000,
150.000,0.000,
151.000,0.000,
152.000,0.000,
153.000,0.000,
154.000,0.000,
155.000,0.000,
156.000,0.000,
157.000,0.000,
158.000,0.000,
159.000,0.000,
160.000,0.000,
161.000,0.000,
162.000,0.000,
163.000,0.000,
164.000,0.000,
165.000,0.000,
166.000,0.000,
167.000,0.000,
168.000,0.000,
169.000,0.000,
170.000,0.000,
171.000,0.000,
172.000,0.000,
173.000,0.000,
174.000,0.000,
175.000,0.000,
176.000,0.000,
177.000,0.000,
178.000,0.000,
179.000,0.000,
PATCUT:,EL
POLARI:,V/V
NUPOIN:,360
FSTLST:,-180,179
-180.000,-0.200,
-179.000,0.000,
-178.000,0.000,
-177.000,-0.200,
-176.000,-0.500,
-175.000,-0.900,
-174.000,-1.500,
-173.000,-2.200,
-172.000,-3.200,
-171.000,-4.300,
-170.000,-5.700,
-169.000,-7.400,
-168.000,-9.400,
-167.000,-12.200,
-166.000,-15.800,
-165.000,-20.000,
-164.000,-22.800,
-163.000,-20.000,
-162.000,-16.900,
-161.000,-14.800,
-160.000,-13.400,
-159.000,-12.600,
-158.000,-12.100,
-157.000,-12.100,
-156.000,-12.400,
-155.000,-13.100,
-154.000,-14.000,
-153.000,-15.300,
-152.000,-16.900,
-151.000,-18.200,
-150.000,-18.900,
-149.000,-18.400,
-148.000,-17.200,
-147.000,-15.900,
-146.000,-14.800,
-145.000,-14.000,
-144.000,-13.500,
-143.000,-13.400,
-142.000,-13.600,
-141.000,-14.100,
-140.000,-15.000,
-139.000,-16.300,
-138.000,-18.100,
-137.000,-20.800,
-136.000,-24.900,
-135.000,-29.000,
-134.000,-26.700,
-133.000,-22.600,
-132.000,-19.700,
-131.000,-17.600,
-130.000,-16.200,
-129.000,-15.200,
-128.000,-14.600,
-127.000,-14.200,
-126.000,-14.100,
-125.000,-14.300,
-124.000,-14.700,
-123.000,-15.300,
-122.000,-16.200,
-121.000,-17.400,
-120.000,-19.100,
-119.000,-21.300,
-118.000,-24.500,
-117.000,-29.400,
-116.000,-36.100,
-115.000,-30.900,
-114.000,-25.800,
-113.000,-22.400,
-112.000,-20.300,
-111.000,-18.700,
-110.000,-17.500,
-109.000,-16.600,
-108.000,-15.900,
-107.000,-15.400,
-106.000,-15.000,
-105.000,-14.800,
-104.000,-14.700,
-103.000,-14.800,
-102.000,-14.900,
-101.000,-15.200,
-100.000,-15.600,
-99.000,-16.100,
-98.000,-16.800,
-97.000,-17.600,
-96.000,-18.500,
-95.000,-19.700,
-94.000,-21.200,
-93.000,-23.200,
-92.000,-26.000,
-91.000,-30.100,
-90.000,-38.300,
-89.000,-41.700,
-88.000,-31.100,
-87.000,-26.600,
-86.000,-23.600,
-85.000,-21.500,
-84.000,-19.800,
-83.000,-18.600,
-82.000,-17.500,
-81.000,-16.700,
-80.000,-16.000,
-79.000,-15.400,
-78.000,-14.900,
-77.000,-14.600,
-76.000,-14.400,
-75.000,-14.300,
-74.000,-14.300,
-73.000,-14.400,
-72.000,-14.700,
-71.000,-15.100,
-70.000,-15.600,
-69.000,-16.500,
-68.000,-17.500,
-67.000,-18.800,
-66.000,-20.500,
-65.000,-22.900,
-64.000,-26.700,
-63.000,-32.500,
-62.000,-34.000,
-61.000,-27.600,
-60.000,-23.400,
-59.000,-20.500,
-58.000,-18.600,
-57.000,-17.200,
-56.000,-16.100,
-55.000,-15.400,
-54.000,-14.900,
-53.000,-14.700,
-52.000,-14.800,
-51.000,-15.100,
-50.000,-15.800,
-49.000,-16.900,
-48.000,-18.500,
-47.000,-20.900,
-46.000,-24.800,
-45.000,-30.500,
-44.000,-28.700,
-43.000,-22.800,
-42.000,-19.200,
-41.000,-16.700,
-40.000,-14.800,
-39.000,-13.700,
-38.000,-12.800,
-37.000,-12.200,
-36.000,-12.000,
-35.000,-12.100,
-34.000,-12.500,
-33.000,-13.100,
-32.000,-14.200,
-31.000,-15.600,
-30.000,-17.200,
-29.000,-18.900,
-28.000,-19.400,
-27.000,-18.500,
-26.000,-16.900,
-25.000,-15.400,
-24.000,-14.200,
-23.000,-13.300,
-22.000,-13.000,
-21.000,-12.900,
-20.000,-13.200,
-19.000,-14.000,
-18.000,-15.300,
-17.000,-17.400,
-16.000,-20.900,
-15.000,-24.400,
-14.000,-20.900,
-13.000,-16.200,
-12.000,-12.500,
-11.000,-9.800,
-10.000,-7.700,
-9.000,-5.900,
-8.000,-4.500,
-7.000,-3.400,
-6.000,-2.400,
-5.000,-1.600,
-4.000,-1.000,
-3.000,-0.600,
-2.000,-0.200,
-1.000,0.000,
0.000,0.000,
1.000,-0.100,
2.000,-0.300,
3.000,-0.600,
4.000,-1.100,
5.000,-1.600,
6.000,-2.300,
7.000,-3.100,
8.000,-3.900,
9.000,-5.000,
10.000,-6.200,
11.000,-7.500,
12.000,-9.000,
13.000,-11.100,
14.000,-13.300,
15.000,-16.400,
16.000,-20.700,
17.000,-26.900,
18.000,-26.700,
19.000,-21.700,
20.000,-18.400,
21.000,-16.600,
22.000,-15.500,
23.000,-15.000,
24.000,-14.800,
25.000,-15.400,
26.000,-16.300,
27.000,-17.900,
28.000,-20.200,
29.000,-23.700,
30.000,-29.500,
31.000,-29.300,
32.000,-23.700,
33.000,-20.000,
34.000,-17.500,
35.000,-16.000,
36.000,-15.000,
37.000,-14.500,
38.000,-14.300,
39.000,-14.400,
40.000,-14.800,
41.000,-15.500,
42.000,-16.700,
43.000,-18.200,
44.000,-20.300,
45.000,-23.500,
46.000,-28.800,
47.000,-36.100,
48.000,-29.100,
49.000,-23.600,
50.000,-20.600,
51.000,-18.800,
52.000,-17.400,
53.000,-16.700,
54.000,-16.200,
55.000,-16.000,
56.000,-15.900,
57.000,-16.100,
58.000,-16.300,
59.000,-16.700,
60.000,-17.200,
61.000,-17.700,
62.000,-18.400,
63.000,-19.200,
64.000,-20.100,
65.000,-20.700,
66.000,-21.100,
67.000,-21.200,
68.000,-21.000,
69.000,-20.500,
70.000,-19.800,
71.000,-19.200,
72.000,-18.700,
73.000,-18.200,
74.000,-17.900,
75.000,-17.600,
76.000,-17.500,
77.000,-17.500,
78.000,-17.600,
79.000,-17.900,
80.000,-18.300,
81.000,-18.800,
82.000,-19.500,
83.000,-20.400,
84.000,-21.500,
85.000,-22.900,
86.000,-24.600,
87.000,-26.900,
88.000,-29.900,
89.000,-33.400,
90.000,-33.500,
91.000,-30.000,
92.000,-26.600,
93.000,-24.100,
94.000,-22.200,
95.000,-20.700,
96.000,-19.400,
97.000,-18.400,
98.000,-17.600,
99.000,-16.900,
100.000,-16.300,
101.000,-15.900,
102.000,-15.500,
103.000,-15.200,
104.000,-15.000,
105.000,-14.900,
106.000,-14.900,
107.000,-14.900,
108.000,-15.000,
109.000,-15.200,
110.000,-15.500,
111.000,-15.800,
112.000,-16.100,
113.000,-16.400,
114.000,-16.600,
115.000,-16.800,
116.000,-16.700,
117.000,-16.600,
118.000,-16.300,
119.000,-15.900,
120.000,-15.400,
121.000,-15.000,
122.000,-14.600,
123.000,-14.300,
124.000,-14.100,
125.000,-14.000,
126.000,-14.100,
127.000,-14.300,
128.000,-14.700,
129.000,-15.400,
130.000,-16.300,
131.000,-17.600,
132.000,-19.400,
133.000,-21.900,
134.000,-25.400,
135.000,-29.300,
136.000,-27.800,
137.000,-23.700,
138.000,-20.700,
139.000,-18.600,
140.000,-17.200,
141.000,-16.300,
142.000,-15.800,
143.000,-15.700,
144.000,-15.900,
145.000,-16.500,
146.000,-17.700,
147.000,-19.400,
148.000,-22.200,
149.000,-26.300,
150.000,-28.200,
151.000,-23.800,
152.000,-19.900,
153.000,-17.200,
154.000,-15.300,
155.000,-14.000,
156.000,-13.100,
157.000,-12.700,
158.000,-12.600,
159.000,-12.900,
160.000,-13.600,
161.000,-14.800,
162.000,-16.700,
163.000,-19.700,
164.000,-24.200,
165.000,-25.800,
166.000,-20.400,
167.000,-16.000,
168.000,-12.900,
169.000,-10.600,
170.000,-8.700,
171.000,-7.100,
172.000,-5.800,
173.000,-4.600,
174.000,-3.600,
175.000,-2.700,
176.000,-1.900,
177.000,-1.300,
178.000,-0.800,
179.000,-0.400,
ENDFIL:,EOF
