REVNUM:,NSMA WG16.99.050
REVDAT:,19990520
ANTMAN:,KATHREIN
MODNUM:,742226
DESCR1:,Panel
DESCR2:,11.57 dBd
DESCR3:,60 degree
DTDATA:,20030524
LOWFRQ:,1710
HGHFRQ:,2170
GUNITS:,DBD/DBR
MDGAIN:,11.6
AZWIDT:,60.0
ELWIDT:,17.5
ELTILT:,0.0
ANTLEN:,0.58
ANTWID:,0.26
ANTDEP:,0.14
ANTWGT:,7.5
PATTYP:,TYPICAL
NOFREQ:,1
PATFRE:,2140.0
NUMCUT:,2
PATCUT:,AZ
POLARI:,V/V
NUPOIN:,360
FSTLST:,-180,179
-180.000,-37.700,
-179.000,-36.800,
-178.000,-36.100,
-177.000,-35.500,
-176.000,-35.100,
-175.000,-34.800,
-174.000,-34.500,
-173.000,-34.300,
-172.000,-34.200,
-171.000,-34.200,
-170.000,-34.100,
-169.000,-34.200,
-168.000,-34.200,
-167.000,-34.400,
-166.000,-34.500,
-165.000,-34.800,
-164.000,-35.000,
-163.000,-35.300,
-162.000,-35.700,
-161.000,-36.200,
-160.000,-36.700,
-159.000,-37.200,
-158.000,-37.700,
-157.000,-38.100,
-156.000,-38.400,
-155.000,-38.500,
-154.000,-38.400,
-153.000,-38.100,
-152.000,-37.700,
-151.000,-36.900,
-150.000,-36.200,
-149.000,-35.400,
-148.000,-34.700,
-147.000,-34.000,
-146.000,-33.300,
-145.000,-32.700,
-144.000,-32.100,
-143.000,-31.600,
-142.000,-31.100,
-141.000,-30.600,
-140.000,-30.300,
-139.000,-30.000,
-138.000,-29.700,
-137.000,-29.500,
-136.000,-29.300,
-135.000,-29.200,
-134.000,-29.200,
-133.000,-29.200,
-132.000,-29.300,
-131.000,-29.400,
-130.000,-29.500,
-129.000,-29.800,
-128.000,-30.200,
-127.000,-30.600,
-126.000,-31.100,
-125.000,-31.600,
-124.000,-32.100,
-123.000,-32.900,
-122.000,-33.700,
-121.000,-34.400,
-120.000,-34.900,
-119.000,-35.200,
-118.000,-35.200,
-117.000,-35.100,
-116.000,-34.600,
-115.000,-33.800,
-114.000,-32.900,
-113.000,-32.000,
-112.000,-31.200,
-111.000,-30.400,
-110.000,-29.600,
-109.000,-28.900,
-108.000,-28.100,
-107.000,-27.400,
-106.000,-26.800,
-105.000,-26.200,
-104.000,-25.600,
-103.000,-25.100,
-102.000,-24.500,
-101.000,-24.000,
-100.000,-23.600,
-99.000,-23.100,
-98.000,-22.700,
-97.000,-22.300,
-96.000,-21.900,
-95.000,-21.600,
-94.000,-21.300,
-93.000,-21.000,
-92.000,-20.700,
-91.000,-20.300,
-90.000,-20.000,
-89.000,-19.700,
-88.000,-19.400,
-87.000,-19.100,
-86.000,-18.800,
-85.000,-18.500,
-84.000,-18.100,
-83.000,-17.800,
-82.000,-17.500,
-81.000,-17.200,
-80.000,-16.900,
-79.000,-16.500,
-78.000,-16.200,
-77.000,-16.000,
-76.000,-15.600,
-75.000,-15.300,
-74.000,-15.000,
-73.000,-14.600,
-72.000,-14.400,
-71.000,-14.000,
-70.000,-13.700,
-69.000,-13.400,
-68.000,-13.000,
-67.000,-12.700,
-66.000,-12.400,
-65.000,-12.100,
-64.000,-11.800,
-63.000,-11.400,
-62.000,-11.100,
-61.000,-10.800,
-60.000,-10.500,
-59.000,-10.100,
-58.000,-9.800,
-57.000,-9.500,
-56.000,-9.200,
-55.000,-8.900,
-54.000,-8.600,
-53.000,-8.200,
-52.000,-7.900,
-51.000,-7.600,
-50.000,-7.400,
-49.000,-7.100,
-48.000,-6.800,
-47.000,-6.500,
-46.000,-6.300,
-45.000,-6.000,
-44.000,-5.700,
-43.000,-5.500,
-42.000,-5.200,
-41.000,-5.000,
-40.000,-4.700,
-39.000,-4.500,
-38.000,-4.300,
-37.000,-4.000,
-36.000,-3.800,
-35.000,-3.600,
-34.000,-3.400,
-33.000,-3.200,
-32.000,-3.000,
-31.000,-2.800,
-30.000,-2.700,
-29.000,-2.500,
-28.000,-2.300,
-27.000,-2.200,
-26.000,-2.000,
-25.000,-1.900,
-24.000,-1.700,
-23.000,-1.600,
-22.000,-1.500,
-21.000,-1.300,
-20.000,-1.200,
-19.000,-1.100,
-18.000,-1.000,
-17.000,-0.900,
-16.000,-0.800,
-15.000,-0.700,
-14.000,-0.600,
-13.000,-0.500,
-12.000,-0.500,
-11.000,-0.400,
-10.000,-0.300,
-9.000,-0.300,
-8.000,-0.200,
-7.000,-0.200,
-6.000,-0.100,
-5.000,-0.100,
-4.000,-0.100,
-3.000,0.000,
-2.000,0.000,
-1.000,0.000,
0.000,0.000,
1.000,0.000,
2.000,0.000,
3.000,0.000,
4.000,-0.100,
5.000,-0.100,
6.000,-0.100,
7.000,-0.200,
8.000,-0.200,
9.000,-0.200,
10.000,-0.300,
11.000,-0.400,
12.000,-0.400,
13.000,-0.500,
14.000,-0.600,
15.000,-0.700,
16.000,-0.800,
17.000,-0.900,
18.000,-1.000,
19.000,-1.100,
20.000,-1.200,
21.000,-1.400,
22.000,-1.500,
23.000,-1.600,
24.000,-1.800,
25.000,-1.900,
26.000,-2.100,
27.000,-2.300,
28.000,-2.400,
29.000,-2.600,
30.000,-2.800,
31.000,-3.000,
32.000,-3.200,
33.000,-3.400,
34.000,-3.600,
35.000,-3.800,
36.000,-4.000,
37.000,-4.200,
38.000,-4.500,
39.000,-4.700,
40.000,-4.900,
41.000,-5.200,
42.000,-5.400,
43.000,-5.700,
44.000,-5.900,
45.000,-6.200,
46.000,-6.500,
47.000,-6.800,
48.000,-7.000,
49.000,-7.300,
50.000,-7.600,
51.000,-7.900,
52.000,-8.200,
53.000,-8.500,
54.000,-8.800,
55.000,-9.100,
56.000,-9.300,
57.000,-9.600,
58.000,-10.000,
59.000,-10.300,
60.000,-10.500,
61.000,-10.800,
62.000,-11.100,
63.000,-11.400,
64.000,-11.700,
65.000,-11.900,
66.000,-12.200,
67.000,-12.400,
68.000,-12.700,
69.000,-13.000,
70.000,-13.300,
71.000,-13.500,
72.000,-13.800,
73.000,-14.100,
74.000,-14.400,
75.000,-14.700,
76.000,-15.100,
77.000,-15.400,
78.000,-15.700,
79.000,-16.100,
80.000,-16.500,
81.000,-16.900,
82.000,-17.300,
83.000,-17.600,
84.000,-18.000,
85.000,-18.400,
86.000,-18.800,
87.000,-19.200,
88.000,-19.600,
89.000,-20.000,
90.000,-20.400,
91.000,-20.800,
92.000,-21.200,
93.000,-21.600,
94.000,-22.000,
95.000,-22.400,
96.000,-22.700,
97.000,-23.200,
98.000,-23.600,
99.000,-23.900,
100.000,-24.200,
101.000,-24.400,
102.000,-24.700,
103.000,-24.900,
104.000,-25.100,
105.000,-25.100,
106.000,-25.000,
107.000,-24.800,
108.000,-24.700,
109.000,-24.600,
110.000,-24.300,
111.000,-24.100,
112.000,-23.800,
113.000,-23.500,
114.000,-23.300,
115.000,-23.200,
116.000,-23.000,
117.000,-22.900,
118.000,-22.700,
119.000,-22.700,
120.000,-22.700,
121.000,-22.800,
122.000,-22.900,
123.000,-22.900,
124.000,-23.100,
125.000,-23.300,
126.000,-23.600,
127.000,-23.900,
128.000,-24.200,
129.000,-24.600,
130.000,-25.000,
131.000,-25.600,
132.000,-26.200,
133.000,-26.900,
134.000,-27.600,
135.000,-28.500,
136.000,-29.400,
137.000,-30.500,
138.000,-31.700,
139.000,-33.100,
140.000,-34.700,
141.000,-36.500,
142.000,-38.500,
143.000,-40.700,
144.000,-42.400,
145.000,-42.700,
146.000,-41.500,
147.000,-40.000,
148.000,-38.500,
149.000,-37.300,
150.000,-36.200,
151.000,-35.300,
152.000,-34.600,
153.000,-34.200,
154.000,-33.900,
155.000,-33.700,
156.000,-33.600,
157.000,-33.600,
158.000,-33.700,
159.000,-33.900,
160.000,-34.200,
161.000,-34.700,
162.000,-35.200,
163.000,-35.800,
164.000,-36.600,
165.000,-37.500,
166.000,-38.600,
167.000,-40.000,
168.000,-41.700,
169.000,-43.800,
170.000,-46.600,
171.000,-50.800,
172.000,-58.900,
173.000,-59.500,
174.000,-51.100,
175.000,-46.800,
176.000,-43.900,
177.000,-41.800,
178.000,-40.100,
179.000,-38.800,
PATCUT:,EL
POLARI:,V/V
NUPOIN:,360
FSTLST:,-180,179
-180.000,-37.500,
-179.000,-36.700,
-178.000,-35.000,
-177.000,-33.500,
-176.000,-32.300,
-175.000,-31.500,
-174.000,-30.900,
-173.000,-30.600,
-172.000,-30.400,
-171.000,-30.300,
-170.000,-30.200,
-169.000,-30.000,
-168.000,-29.800,
-167.000,-29.600,
-166.000,-29.300,
-165.000,-29.200,
-164.000,-29.300,
-163.000,-29.500,
-162.000,-30.000,
-161.000,-30.900,
-160.000,-32.200,
-159.000,-34.000,
-158.000,-36.700,
-157.000,-40.200,
-156.000,-42.500,
-155.000,-40.200,
-154.000,-37.100,
-153.000,-34.800,
-152.000,-33.200,
-151.000,-32.100,
-150.000,-31.300,
-149.000,-30.700,
-148.000,-30.300,
-147.000,-30.100,
-146.000,-29.900,
-145.000,-29.900,
-144.000,-30.000,
-143.000,-30.100,
-142.000,-30.300,
-141.000,-30.500,
-140.000,-30.800,
-139.000,-31.200,
-138.000,-31.800,
-137.000,-32.500,
-136.000,-33.600,
-135.000,-35.000,
-134.000,-36.300,
-133.000,-36.800,
-132.000,-35.700,
-131.000,-33.700,
-130.000,-31.800,
-129.000,-30.200,
-128.000,-29.000,
-127.000,-28.200,
-126.000,-27.600,
-125.000,-27.200,
-124.000,-27.100,
-123.000,-27.000,
-122.000,-27.000,
-121.000,-27.000,
-120.000,-27.000,
-119.000,-27.100,
-118.000,-27.100,
-117.000,-27.100,
-116.000,-27.000,
-115.000,-27.000,
-114.000,-27.000,
-113.000,-27.200,
-112.000,-27.500,
-111.000,-28.100,
-110.000,-29.000,
-109.000,-30.200,
-108.000,-31.600,
-107.000,-32.900,
-106.000,-33.700,
-105.000,-33.600,
-104.000,-32.800,
-103.000,-31.700,
-102.000,-30.500,
-101.000,-29.300,
-100.000,-28.200,
-99.000,-27.200,
-98.000,-26.500,
-97.000,-26.100,
-96.000,-26.100,
-95.000,-26.400,
-94.000,-27.100,
-93.000,-28.200,
-92.000,-29.600,
-91.000,-30.700,
-90.000,-30.400,
-89.000,-28.700,
-88.000,-26.800,
-87.000,-25.100,
-86.000,-23.800,
-85.000,-22.900,
-84.000,-22.400,
-83.000,-22.200,
-82.000,-22.300,
-81.000,-22.600,
-80.000,-22.900,
-79.000,-23.100,
-78.000,-22.900,
-77.000,-22.300,
-76.000,-21.500,
-75.000,-20.700,
-74.000,-20.000,
-73.000,-19.500,
-72.000,-19.200,
-71.000,-19.100,
-70.000,-19.300,
-69.000,-19.600,
-68.000,-20.200,
-67.000,-20.900,
-66.000,-21.700,
-65.000,-22.400,
-64.000,-22.600,
-63.000,-22.200,
-62.000,-21.400,
-61.000,-20.500,
-60.000,-19.700,
-59.000,-19.200,
-58.000,-18.800,
-57.000,-18.800,
-56.000,-18.900,
-55.000,-19.300,
-54.000,-19.900,
-53.000,-20.600,
-52.000,-21.500,
-51.000,-22.400,
-50.000,-23.200,
-49.000,-24.000,
-48.000,-24.400,
-47.000,-24.500,
-46.000,-24.200,
-45.000,-23.400,
-44.000,-22.400,
-43.000,-21.300,
-42.000,-20.100,
-41.000,-19.000,
-40.000,-18.000,
-39.000,-17.000,
-38.000,-16.200,
-37.000,-15.400,
-36.000,-14.800,
-35.000,-14.300,
-34.000,-13.900,
-33.000,-13.700,
-32.000,-13.500,
-31.000,-13.600,
-30.000,-13.800,
-29.000,-14.100,
-28.000,-14.700,
-27.000,-15.400,
-26.000,-16.400,
-25.000,-17.500,
-24.000,-18.700,
-23.000,-19.800,
-22.000,-20.300,
-21.000,-19.700,
-20.000,-18.100,
-19.000,-16.100,
-18.000,-14.100,
-17.000,-12.200,
-16.000,-10.500,
-15.000,-8.900,
-14.000,-7.500,
-13.000,-6.300,
-12.000,-5.200,
-11.000,-4.300,
-10.000,-3.400,
-9.000,-2.700,
-8.000,-2.100,
-7.000,-1.600,
-6.000,-1.100,
-5.000,-0.800,
-4.000,-0.500,
-3.000,-0.300,
-2.000,-0.100,
-1.000,0.000,
0.000,0.000,
1.000,-0.100,
2.000,-0.200,
3.000,-0.300,
4.000,-0.600,
5.000,-0.900,
6.000,-1.300,
7.000,-1.700,
8.000,-2.300,
9.000,-2.900,
10.000,-3.600,
11.000,-4.500,
12.000,-5.500,
13.000,-6.600,
14.000,-8.000,
15.000,-9.700,
16.000,-11.700,
17.000,-14.200,
18.000,-17.600,
19.000,-22.200,
20.000,-26.500,
21.000,-23.600,
22.000,-19.700,
23.000,-17.100,
24.000,-15.300,
25.000,-14.000,
26.000,-13.100,
27.000,-12.500,
28.000,-12.000,
29.000,-11.700,
30.000,-11.600,
31.000,-11.600,
32.000,-11.700,
33.000,-12.000,
34.000,-12.400,
35.000,-12.900,
36.000,-13.600,
37.000,-14.300,
38.000,-15.200,
39.000,-16.100,
40.000,-17.000,
41.000,-17.700,
42.000,-18.200,
43.000,-18.300,
44.000,-18.300,
45.000,-18.000,
46.000,-17.700,
47.000,-17.300,
48.000,-16.900,
49.000,-16.600,
50.000,-16.300,
51.000,-16.100,
52.000,-16.000,
53.000,-16.000,
54.000,-16.100,
55.000,-16.300,
56.000,-16.500,
57.000,-16.700,
58.000,-16.800,
59.000,-17.000,
60.000,-17.000,
61.000,-17.000,
62.000,-16.900,
63.000,-16.800,
64.000,-16.600,
65.000,-16.500,
66.000,-16.300,
67.000,-16.100,
68.000,-16.000,
69.000,-15.900,
70.000,-15.800,
71.000,-15.700,
72.000,-15.800,
73.000,-15.900,
74.000,-16.200,
75.000,-16.600,
76.000,-17.200,
77.000,-17.800,
78.000,-18.500,
79.000,-19.200,
80.000,-19.700,
81.000,-20.000,
82.000,-20.200,
83.000,-20.200,
84.000,-20.100,
85.000,-20.100,
86.000,-19.900,
87.000,-19.500,
88.000,-19.000,
89.000,-18.300,
90.000,-17.700,
91.000,-17.200,
92.000,-16.900,
93.000,-16.900,
94.000,-17.200,
95.000,-18.000,
96.000,-19.100,
97.000,-20.800,
98.000,-23.000,
99.000,-26.100,
100.000,-30.000,
101.000,-33.900,
102.000,-33.600,
103.000,-30.800,
104.000,-28.500,
105.000,-26.900,
106.000,-25.800,
107.000,-25.100,
108.000,-24.800,
109.000,-24.800,
110.000,-25.300,
111.000,-26.100,
112.000,-27.100,
113.000,-28.000,
114.000,-28.500,
115.000,-28.400,
116.000,-28.100,
117.000,-27.900,
118.000,-28.100,
119.000,-28.500,
120.000,-29.100,
121.000,-29.500,
122.000,-29.500,
123.000,-29.300,
124.000,-29.000,
125.000,-28.800,
126.000,-29.000,
127.000,-29.600,
128.000,-30.500,
129.000,-31.700,
130.000,-32.700,
131.000,-33.400,
132.000,-33.300,
133.000,-32.700,
134.000,-32.000,
135.000,-31.500,
136.000,-31.200,
137.000,-31.400,
138.000,-31.800,
139.000,-32.400,
140.000,-33.000,
141.000,-33.500,
142.000,-33.900,
143.000,-34.100,
144.000,-34.500,
145.000,-35.200,
146.000,-36.000,
147.000,-36.500,
148.000,-36.300,
149.000,-35.500,
150.000,-34.700,
151.000,-34.200,
152.000,-34.000,
153.000,-33.900,
154.000,-33.500,
155.000,-32.600,
156.000,-31.400,
157.000,-30.200,
158.000,-29.300,
159.000,-28.800,
160.000,-28.700,
161.000,-28.900,
162.000,-29.500,
163.000,-30.300,
164.000,-31.100,
165.000,-31.700,
166.000,-31.900,
167.000,-31.700,
168.000,-31.100,
169.000,-30.400,
170.000,-29.600,
171.000,-28.900,
172.000,-28.500,
173.000,-28.400,
174.000,-28.700,
175.000,-29.300,
176.000,-30.500,
177.000,-32.100,
178.000,-34.200,
179.000,-36.400,
ENDFIL:,EOF
