REVNUM:,NSMA WG16.99.050
REVDAT:,19990520
ANTMAN:,KATHREIN
MODNUM:,742226
DESCR1:,Panel
DESCR2:,11.12 dBd
DESCR3:,60 degree
DTDATA:,20030524
LOWFRQ:,1710
HGHFRQ:,2170
GUNITS:,DBD/DBR
MDGAIN:,11.1
AZWIDT:,60.0
ELWIDT:,18.0
ELTILT:,0.0
ANTLEN:,0.58
ANTWID:,0.26
ANTDEP:,0.14
ANTWGT:,7.5
PATTYP:,TYPICAL
NOFREQ:,1
PATFRE:,1880.0
NUMCUT:,2
PATCUT:,AZ
POLARI:,V/V
NUPOIN:,360
FSTLST:,-180,179
-180.000,-31.800,
-179.000,-31.500,
-178.000,-31.200,
-177.000,-31.100,
-176.000,-31.000,
-175.000,-30.900,
-174.000,-31.000,
-173.000,-31.100,
-172.000,-31.300,
-171.000,-31.500,
-170.000,-31.900,
-169.000,-32.300,
-168.000,-32.900,
-167.000,-33.500,
-166.000,-34.400,
-165.000,-35.300,
-164.000,-36.500,
-163.000,-37.800,
-162.000,-39.500,
-161.000,-41.400,
-160.000,-43.500,
-159.000,-45.200,
-158.000,-45.400,
-157.000,-43.900,
-156.000,-41.900,
-155.000,-40.000,
-154.000,-38.500,
-153.000,-37.300,
-152.000,-36.200,
-151.000,-35.400,
-150.000,-34.700,
-149.000,-34.200,
-148.000,-33.700,
-147.000,-33.400,
-146.000,-33.100,
-145.000,-33.000,
-144.000,-33.000,
-143.000,-33.000,
-142.000,-33.000,
-141.000,-33.000,
-140.000,-33.100,
-139.000,-33.300,
-138.000,-33.400,
-137.000,-33.500,
-136.000,-33.500,
-135.000,-33.500,
-134.000,-33.500,
-133.000,-33.400,
-132.000,-33.100,
-131.000,-32.700,
-130.000,-32.200,
-129.000,-31.700,
-128.000,-31.200,
-127.000,-30.500,
-126.000,-29.900,
-125.000,-29.200,
-124.000,-28.500,
-123.000,-27.900,
-122.000,-27.300,
-121.000,-26.700,
-120.000,-26.100,
-119.000,-25.600,
-118.000,-25.100,
-117.000,-24.700,
-116.000,-24.300,
-115.000,-24.000,
-114.000,-23.700,
-113.000,-23.400,
-112.000,-23.100,
-111.000,-23.000,
-110.000,-22.800,
-109.000,-22.700,
-108.000,-22.600,
-107.000,-22.500,
-106.000,-22.500,
-105.000,-22.600,
-104.000,-22.600,
-103.000,-22.700,
-102.000,-22.800,
-101.000,-22.900,
-100.000,-23.000,
-99.000,-23.200,
-98.000,-23.300,
-97.000,-23.400,
-96.000,-23.400,
-95.000,-23.400,
-94.000,-23.400,
-93.000,-23.400,
-92.000,-23.200,
-91.000,-23.000,
-90.000,-22.700,
-89.000,-22.500,
-88.000,-22.100,
-87.000,-21.700,
-86.000,-21.200,
-85.000,-20.700,
-84.000,-20.200,
-83.000,-19.700,
-82.000,-19.200,
-81.000,-18.700,
-80.000,-18.200,
-79.000,-17.700,
-78.000,-17.200,
-77.000,-16.700,
-76.000,-16.200,
-75.000,-15.800,
-74.000,-15.300,
-73.000,-14.900,
-72.000,-14.500,
-71.000,-14.100,
-70.000,-13.700,
-69.000,-13.300,
-68.000,-13.000,
-67.000,-12.600,
-66.000,-12.300,
-65.000,-12.000,
-64.000,-11.600,
-63.000,-11.300,
-62.000,-11.000,
-61.000,-10.700,
-60.000,-10.400,
-59.000,-10.100,
-58.000,-9.800,
-57.000,-9.500,
-56.000,-9.200,
-55.000,-8.900,
-54.000,-8.600,
-53.000,-8.300,
-52.000,-8.100,
-51.000,-7.800,
-50.000,-7.500,
-49.000,-7.200,
-48.000,-7.000,
-47.000,-6.700,
-46.000,-6.500,
-45.000,-6.200,
-44.000,-5.900,
-43.000,-5.700,
-42.000,-5.500,
-41.000,-5.200,
-40.000,-5.000,
-39.000,-4.700,
-38.000,-4.500,
-37.000,-4.300,
-36.000,-4.100,
-35.000,-3.900,
-34.000,-3.600,
-33.000,-3.400,
-32.000,-3.200,
-31.000,-3.100,
-30.000,-2.900,
-29.000,-2.700,
-28.000,-2.500,
-27.000,-2.300,
-26.000,-2.200,
-25.000,-2.000,
-24.000,-1.800,
-23.000,-1.700,
-22.000,-1.500,
-21.000,-1.400,
-20.000,-1.300,
-19.000,-1.100,
-18.000,-1.000,
-17.000,-0.900,
-16.000,-0.800,
-15.000,-0.700,
-14.000,-0.600,
-13.000,-0.500,
-12.000,-0.400,
-11.000,-0.400,
-10.000,-0.300,
-9.000,-0.200,
-8.000,-0.200,
-7.000,-0.100,
-6.000,-0.100,
-5.000,-0.100,
-4.000,0.000,
-3.000,0.000,
-2.000,0.000,
-1.000,0.000,
0.000,0.000,
1.000,0.000,
2.000,0.000,
3.000,-0.100,
4.000,-0.100,
5.000,-0.100,
6.000,-0.200,
7.000,-0.200,
8.000,-0.300,
9.000,-0.300,
10.000,-0.400,
11.000,-0.500,
12.000,-0.600,
13.000,-0.600,
14.000,-0.700,
15.000,-0.800,
16.000,-0.900,
17.000,-1.000,
18.000,-1.200,
19.000,-1.300,
20.000,-1.400,
21.000,-1.500,
22.000,-1.700,
23.000,-1.800,
24.000,-2.000,
25.000,-2.100,
26.000,-2.300,
27.000,-2.400,
28.000,-2.600,
29.000,-2.800,
30.000,-3.000,
31.000,-3.100,
32.000,-3.300,
33.000,-3.500,
34.000,-3.700,
35.000,-3.900,
36.000,-4.100,
37.000,-4.200,
38.000,-4.400,
39.000,-4.600,
40.000,-4.800,
41.000,-5.000,
42.000,-5.200,
43.000,-5.400,
44.000,-5.700,
45.000,-5.900,
46.000,-6.100,
47.000,-6.300,
48.000,-6.500,
49.000,-6.700,
50.000,-6.900,
51.000,-7.200,
52.000,-7.400,
53.000,-7.600,
54.000,-7.900,
55.000,-8.100,
56.000,-8.300,
57.000,-8.600,
58.000,-8.900,
59.000,-9.100,
60.000,-9.400,
61.000,-9.600,
62.000,-9.900,
63.000,-10.100,
64.000,-10.400,
65.000,-10.700,
66.000,-10.900,
67.000,-11.200,
68.000,-11.400,
69.000,-11.700,
70.000,-12.000,
71.000,-12.300,
72.000,-12.600,
73.000,-12.800,
74.000,-13.200,
75.000,-13.500,
76.000,-13.900,
77.000,-14.200,
78.000,-14.600,
79.000,-15.000,
80.000,-15.400,
81.000,-15.900,
82.000,-16.400,
83.000,-16.800,
84.000,-17.300,
85.000,-17.800,
86.000,-18.400,
87.000,-18.900,
88.000,-19.500,
89.000,-20.000,
90.000,-20.500,
91.000,-21.000,
92.000,-21.400,
93.000,-21.800,
94.000,-22.000,
95.000,-22.200,
96.000,-22.300,
97.000,-22.400,
98.000,-22.300,
99.000,-22.300,
100.000,-22.100,
101.000,-22.000,
102.000,-21.800,
103.000,-21.700,
104.000,-21.700,
105.000,-21.500,
106.000,-21.400,
107.000,-21.400,
108.000,-21.400,
109.000,-21.400,
110.000,-21.400,
111.000,-21.500,
112.000,-21.500,
113.000,-21.700,
114.000,-21.800,
115.000,-22.000,
116.000,-22.200,
117.000,-22.300,
118.000,-22.500,
119.000,-22.700,
120.000,-22.900,
121.000,-23.100,
122.000,-23.300,
123.000,-23.400,
124.000,-23.600,
125.000,-23.800,
126.000,-23.900,
127.000,-24.100,
128.000,-24.200,
129.000,-24.300,
130.000,-24.500,
131.000,-24.600,
132.000,-24.800,
133.000,-25.000,
134.000,-25.300,
135.000,-25.500,
136.000,-25.900,
137.000,-26.200,
138.000,-26.700,
139.000,-27.100,
140.000,-27.700,
141.000,-28.300,
142.000,-29.000,
143.000,-29.800,
144.000,-30.600,
145.000,-31.600,
146.000,-32.700,
147.000,-33.900,
148.000,-35.200,
149.000,-36.700,
150.000,-38.500,
151.000,-40.500,
152.000,-43.000,
153.000,-45.800,
154.000,-49.600,
155.000,-55.500,
156.000,-68.400,
157.000,-58.300,
158.000,-52.900,
159.000,-50.300,
160.000,-48.500,
161.000,-47.300,
162.000,-46.400,
163.000,-45.700,
164.000,-45.300,
165.000,-44.800,
166.000,-44.000,
167.000,-43.100,
168.000,-41.900,
169.000,-40.700,
170.000,-39.500,
171.000,-38.300,
172.000,-37.200,
173.000,-36.200,
174.000,-35.300,
175.000,-34.400,
176.000,-33.700,
177.000,-33.100,
178.000,-32.600,
179.000,-32.100,
PATCUT:,EL
POLARI:,V/V
NUPOIN:,360
FSTLST:,-180,179
-180.000,-32.000,
-179.000,-33.100,
-178.000,-34.900,
-177.000,-37.400,
-176.000,-41.000,
-175.000,-44.700,
-174.000,-43.700,
-173.000,-40.600,
-172.000,-38.600,
-171.000,-37.700,
-170.000,-37.600,
-169.000,-38.100,
-168.000,-38.400,
-167.000,-37.800,
-166.000,-36.300,
-165.000,-34.500,
-164.000,-33.100,
-163.000,-32.200,
-162.000,-31.900,
-161.000,-32.300,
-160.000,-33.400,
-159.000,-35.500,
-158.000,-39.000,
-157.000,-42.600,
-156.000,-39.800,
-155.000,-35.500,
-154.000,-32.500,
-153.000,-30.400,
-152.000,-29.000,
-151.000,-28.100,
-150.000,-27.500,
-149.000,-27.200,
-148.000,-27.200,
-147.000,-27.500,
-146.000,-27.900,
-145.000,-28.600,
-144.000,-29.400,
-143.000,-30.400,
-142.000,-31.500,
-141.000,-32.700,
-140.000,-34.000,
-139.000,-35.300,
-138.000,-37.100,
-137.000,-39.500,
-136.000,-43.300,
-135.000,-51.100,
-134.000,-56.000,
-133.000,-44.900,
-132.000,-40.500,
-131.000,-37.900,
-130.000,-36.200,
-129.000,-35.000,
-128.000,-34.100,
-127.000,-33.200,
-126.000,-32.400,
-125.000,-31.700,
-124.000,-31.100,
-123.000,-30.800,
-122.000,-30.700,
-121.000,-31.000,
-120.000,-31.700,
-119.000,-32.700,
-118.000,-34.100,
-117.000,-35.300,
-116.000,-35.900,
-115.000,-35.500,
-114.000,-34.600,
-113.000,-33.800,
-112.000,-33.400,
-111.000,-33.500,
-110.000,-34.100,
-109.000,-35.300,
-108.000,-36.900,
-107.000,-38.300,
-106.000,-38.300,
-105.000,-36.700,
-104.000,-34.700,
-103.000,-32.900,
-102.000,-31.300,
-101.000,-29.800,
-100.000,-28.400,
-99.000,-27.000,
-98.000,-25.800,
-97.000,-24.800,
-96.000,-24.000,
-95.000,-23.500,
-94.000,-23.300,
-93.000,-23.500,
-92.000,-24.100,
-91.000,-24.800,
-90.000,-29.300,
-89.000,-25.800,
-88.000,-25.200,
-87.000,-23.500,
-86.000,-21.700,
-85.000,-20.200,
-84.000,-19.000,
-83.000,-18.100,
-82.000,-17.400,
-81.000,-17.000,
-80.000,-16.700,
-79.000,-16.500,
-78.000,-16.200,
-77.000,-15.900,
-76.000,-15.400,
-75.000,-14.700,
-74.000,-14.100,
-73.000,-13.400,
-72.000,-12.700,
-71.000,-12.100,
-70.000,-11.700,
-69.000,-11.400,
-68.000,-11.200,
-67.000,-11.200,
-66.000,-11.300,
-65.000,-11.600,
-64.000,-12.000,
-63.000,-12.600,
-62.000,-13.200,
-61.000,-13.700,
-60.000,-14.200,
-59.000,-14.600,
-58.000,-14.800,
-57.000,-15.100,
-56.000,-15.300,
-55.000,-15.600,
-54.000,-15.900,
-53.000,-16.400,
-52.000,-17.100,
-51.000,-17.800,
-50.000,-18.700,
-49.000,-19.500,
-48.000,-20.300,
-47.000,-20.900,
-46.000,-21.200,
-45.000,-21.000,
-44.000,-20.500,
-43.000,-19.600,
-42.000,-18.500,
-41.000,-17.400,
-40.000,-16.300,
-39.000,-15.300,
-38.000,-14.400,
-37.000,-13.600,
-36.000,-13.000,
-35.000,-12.500,
-34.000,-12.100,
-33.000,-11.900,
-32.000,-11.800,
-31.000,-11.800,
-30.000,-12.000,
-29.000,-12.200,
-28.000,-12.700,
-27.000,-13.300,
-26.000,-14.100,
-25.000,-15.300,
-24.000,-16.900,
-23.000,-19.300,
-22.000,-23.100,
-21.000,-28.200,
-20.000,-25.500,
-19.000,-19.900,
-18.000,-16.000,
-17.000,-13.200,
-16.000,-11.000,
-15.000,-9.200,
-14.000,-7.700,
-13.000,-6.400,
-12.000,-5.300,
-11.000,-4.400,
-10.000,-3.600,
-9.000,-2.900,
-8.000,-2.200,
-7.000,-1.700,
-6.000,-1.200,
-5.000,-0.900,
-4.000,-0.500,
-3.000,-0.300,
-2.000,-0.100,
-1.000,0.000,
0.000,0.000,
1.000,-0.100,
2.000,-0.200,
3.000,-0.400,
4.000,-0.600,
5.000,-1.000,
6.000,-1.400,
7.000,-1.900,
8.000,-2.500,
9.000,-3.100,
10.000,-3.800,
11.000,-4.600,
12.000,-5.600,
13.000,-6.600,
14.000,-7.800,
15.000,-9.200,
16.000,-10.900,
17.000,-12.900,
18.000,-15.400,
19.000,-18.900,
20.000,-24.100,
21.000,-32.700,
22.000,-27.700,
23.000,-22.100,
24.000,-19.000,
25.000,-17.100,
26.000,-15.700,
27.000,-14.900,
28.000,-14.300,
29.000,-14.000,
30.000,-13.800,
31.000,-13.800,
32.000,-13.900,
33.000,-14.100,
34.000,-14.300,
35.000,-14.600,
36.000,-15.000,
37.000,-15.400,
38.000,-15.800,
39.000,-16.300,
40.000,-16.900,
41.000,-17.300,
42.000,-17.700,
43.000,-17.900,
44.000,-17.800,
45.000,-17.500,
46.000,-17.000,
47.000,-16.300,
48.000,-15.700,
49.000,-15.100,
50.000,-14.500,
51.000,-14.100,
52.000,-13.700,
53.000,-13.400,
54.000,-13.100,
55.000,-13.000,
56.000,-12.900,
57.000,-12.800,
58.000,-12.800,
59.000,-12.800,
60.000,-12.900,
61.000,-12.900,
62.000,-12.900,
63.000,-12.900,
64.000,-12.900,
65.000,-12.800,
66.000,-12.800,
67.000,-12.700,
68.000,-12.700,
69.000,-12.700,
70.000,-12.700,
71.000,-12.900,
72.000,-13.100,
73.000,-13.300,
74.000,-13.700,
75.000,-14.100,
76.000,-14.500,
77.000,-15.000,
78.000,-15.500,
79.000,-16.000,
80.000,-16.500,
81.000,-17.100,
82.000,-17.800,
83.000,-18.500,
84.000,-19.300,
85.000,-20.200,
86.000,-20.900,
87.000,-21.500,
88.000,-21.800,
89.000,-21.700,
90.000,-21.400,
91.000,-21.000,
92.000,-20.700,
93.000,-20.600,
94.000,-20.700,
95.000,-21.000,
96.000,-21.700,
97.000,-22.600,
98.000,-23.900,
99.000,-25.400,
100.000,-26.700,
101.000,-27.100,
102.000,-26.600,
103.000,-25.600,
104.000,-24.700,
105.000,-24.100,
106.000,-23.800,
107.000,-23.900,
108.000,-24.400,
109.000,-25.300,
110.000,-26.500,
111.000,-28.100,
112.000,-29.900,
113.000,-31.300,
114.000,-31.600,
115.000,-30.900,
116.000,-29.900,
117.000,-29.000,
118.000,-28.400,
119.000,-28.200,
120.000,-28.100,
121.000,-28.300,
122.000,-28.400,
123.000,-28.500,
124.000,-28.500,
125.000,-28.400,
126.000,-28.300,
127.000,-28.300,
128.000,-28.500,
129.000,-28.700,
130.000,-28.900,
131.000,-29.000,
132.000,-28.800,
133.000,-28.500,
134.000,-28.200,
135.000,-28.100,
136.000,-28.200,
137.000,-28.800,
138.000,-29.800,
139.000,-31.200,
140.000,-33.000,
141.000,-34.600,
142.000,-35.200,
143.000,-34.700,
144.000,-33.800,
145.000,-33.400,
146.000,-33.600,
147.000,-34.700,
148.000,-36.900,
149.000,-41.100,
150.000,-50.700,
151.000,-44.600,
152.000,-37.900,
153.000,-34.300,
154.000,-32.200,
155.000,-30.800,
156.000,-30.100,
157.000,-29.900,
158.000,-30.100,
159.000,-30.500,
160.000,-30.900,
161.000,-31.000,
162.000,-30.600,
163.000,-29.600,
164.000,-28.600,
165.000,-27.700,
166.000,-27.100,
167.000,-26.800,
168.000,-27.000,
169.000,-27.500,
170.000,-28.400,
171.000,-29.600,
172.000,-31.100,
173.000,-32.400,
174.000,-33.000,
175.000,-32.800,
176.000,-32.100,
177.000,-31.600,
178.000,-31.300,
179.000,-31.400,
ENDFIL:,EOF
