REVNUM:,NSMA WG16.99.050
REVDAT:,19990520
ANTMAN:,KATHREIN
MODNUM:,75010291
DESCR1:,Dipole
DESCR2:,4.3 dBd - Vertical polarization
DESCR3:,238 degree
DTDATA:,00
LOWFRQ:,174
HGHFRQ:,240
GUNITS:,DBD/DBR
MDGAIN:,4.3
AZWIDT:,238
ELWIDT:,33.2
ELTILT:,0.0
ANTLEN:,2.54
ANTWID:,0.00
ANTDEP:,0.46
ANTWGT:,30.0
PATTYP:,TYPICAL
NOFREQ:,1
PATFRE:,195.0
NUMCUT:,2
PATCUT:,AZ
POLARI:,V/V
NUPOIN:,360
FSTLST:,-180,179
-180.000,-4.670,
-179.000,-4.670,
-178.000,-4.670,
-177.000,-4.670,
-176.000,-4.670,
-175.000,-4.660,
-174.000,-4.660,
-173.000,-4.660,
-172.000,-4.660,
-171.000,-4.660,
-170.000,-4.660,
-169.000,-4.650,
-168.000,-4.650,
-167.000,-4.650,
-166.000,-4.640,
-165.000,-4.640,
-164.000,-4.630,
-163.000,-4.630,
-162.000,-4.620,
-161.000,-4.610,
-160.000,-4.600,
-159.000,-4.600,
-158.000,-4.590,
-157.000,-4.570,
-156.000,-4.560,
-155.000,-4.550,
-154.000,-4.530,
-153.000,-4.520,
-152.000,-4.500,
-151.000,-4.480,
-150.000,-4.460,
-149.000,-4.440,
-148.000,-4.420,
-147.000,-4.390,
-146.000,-4.360,
-145.000,-4.340,
-144.000,-4.310,
-143.000,-4.270,
-142.000,-4.240,
-141.000,-4.210,
-140.000,-4.170,
-139.000,-4.130,
-138.000,-4.090,
-137.000,-4.040,
-136.000,-4.000,
-135.000,-3.950,
-134.000,-3.900,
-133.000,-3.850,
-132.000,-3.800,
-131.000,-3.750,
-130.000,-3.690,
-129.000,-3.640,
-128.000,-3.580,
-127.000,-3.520,
-126.000,-3.460,
-125.000,-3.390,
-124.000,-3.330,
-123.000,-3.270,
-122.000,-3.200,
-121.000,-3.130,
-120.000,-3.060,
-119.000,-3.000,
-118.000,-2.930,
-117.000,-2.860,
-116.000,-2.790,
-115.000,-2.710,
-114.000,-2.640,
-113.000,-2.570,
-112.000,-2.500,
-111.000,-2.430,
-110.000,-2.360,
-109.000,-2.290,
-108.000,-2.210,
-107.000,-2.140,
-106.000,-2.070,
-105.000,-2.000,
-104.000,-1.930,
-103.000,-1.860,
-102.000,-1.800,
-101.000,-1.730,
-100.000,-1.660,
-99.000,-1.600,
-98.000,-1.530,
-97.000,-1.470,
-96.000,-1.400,
-95.000,-1.340,
-94.000,-1.280,
-93.000,-1.220,
-92.000,-1.170,
-91.000,-1.110,
-90.000,-1.050,
-89.000,-1.000,
-88.000,-0.950,
-87.000,-0.900,
-86.000,-0.850,
-85.000,-0.800,
-84.000,-0.750,
-83.000,-0.710,
-82.000,-0.660,
-81.000,-0.620,
-80.000,-0.580,
-79.000,-0.540,
-78.000,-0.500,
-77.000,-0.470,
-76.000,-0.430,
-75.000,-0.400,
-74.000,-0.370,
-73.000,-0.330,
-72.000,-0.310,
-71.000,-0.280,
-70.000,-0.250,
-69.000,-0.230,
-68.000,-0.200,
-67.000,-0.180,
-66.000,-0.160,
-65.000,-0.140,
-64.000,-0.130,
-63.000,-0.110,
-62.000,-0.090,
-61.000,-0.080,
-60.000,-0.070,
-59.000,-0.060,
-58.000,-0.050,
-57.000,-0.040,
-56.000,-0.030,
-55.000,-0.020,
-54.000,-0.020,
-53.000,-0.010,
-52.000,-0.010,
-51.000,0.000,
-50.000,0.000,
-49.000,0.000,
-48.000,0.000,
-47.000,0.000,
-46.000,0.000,
-45.000,0.000,
-44.000,-0.010,
-43.000,-0.010,
-42.000,-0.010,
-41.000,-0.020,
-40.000,-0.020,
-39.000,-0.030,
-38.000,-0.030,
-37.000,-0.040,
-36.000,-0.040,
-35.000,-0.050,
-34.000,-0.060,
-33.000,-0.070,
-32.000,-0.070,
-31.000,-0.080,
-30.000,-0.090,
-29.000,-0.100,
-28.000,-0.100,
-27.000,-0.110,
-26.000,-0.120,
-25.000,-0.130,
-24.000,-0.140,
-23.000,-0.140,
-22.000,-0.150,
-21.000,-0.160,
-20.000,-0.170,
-19.000,-0.170,
-18.000,-0.180,
-17.000,-0.190,
-16.000,-0.200,
-15.000,-0.200,
-14.000,-0.210,
-13.000,-0.210,
-12.000,-0.220,
-11.000,-0.220,
-10.000,-0.230,
-9.000,-0.230,
-8.000,-0.240,
-7.000,-0.240,
-6.000,-0.240,
-5.000,-0.240,
-4.000,-0.250,
-3.000,-0.250,
-2.000,-0.250,
-1.000,-0.250,
0.000,-0.250,
1.000,-0.250,
2.000,-0.250,
3.000,-0.250,
4.000,-0.250,
5.000,-0.240,
6.000,-0.240,
7.000,-0.240,
8.000,-0.240,
9.000,-0.230,
10.000,-0.230,
11.000,-0.220,
12.000,-0.220,
13.000,-0.210,
14.000,-0.210,
15.000,-0.200,
16.000,-0.200,
17.000,-0.190,
18.000,-0.180,
19.000,-0.170,
20.000,-0.170,
21.000,-0.160,
22.000,-0.150,
23.000,-0.140,
24.000,-0.140,
25.000,-0.130,
26.000,-0.120,
27.000,-0.110,
28.000,-0.100,
29.000,-0.100,
30.000,-0.090,
31.000,-0.080,
32.000,-0.070,
33.000,-0.070,
34.000,-0.060,
35.000,-0.050,
36.000,-0.040,
37.000,-0.040,
38.000,-0.030,
39.000,-0.030,
40.000,-0.020,
41.000,-0.020,
42.000,-0.010,
43.000,-0.010,
44.000,-0.010,
45.000,0.000,
46.000,0.000,
47.000,0.000,
48.000,0.000,
49.000,0.000,
50.000,0.000,
51.000,0.000,
52.000,-0.010,
53.000,-0.010,
54.000,-0.020,
55.000,-0.020,
56.000,-0.030,
57.000,-0.040,
58.000,-0.050,
59.000,-0.060,
60.000,-0.070,
61.000,-0.080,
62.000,-0.090,
63.000,-0.110,
64.000,-0.130,
65.000,-0.140,
66.000,-0.160,
67.000,-0.180,
68.000,-0.200,
69.000,-0.230,
70.000,-0.250,
71.000,-0.280,
72.000,-0.310,
73.000,-0.330,
74.000,-0.370,
75.000,-0.400,
76.000,-0.430,
77.000,-0.470,
78.000,-0.500,
79.000,-0.540,
80.000,-0.580,
81.000,-0.620,
82.000,-0.660,
83.000,-0.710,
84.000,-0.750,
85.000,-0.800,
86.000,-0.850,
87.000,-0.900,
88.000,-0.950,
89.000,-1.000,
90.000,-1.050,
91.000,-1.110,
92.000,-1.170,
93.000,-1.220,
94.000,-1.280,
95.000,-1.340,
96.000,-1.400,
97.000,-1.470,
98.000,-1.530,
99.000,-1.600,
100.000,-1.660,
101.000,-1.730,
102.000,-1.800,
103.000,-1.860,
104.000,-1.930,
105.000,-2.000,
106.000,-2.070,
107.000,-2.140,
108.000,-2.210,
109.000,-2.290,
110.000,-2.360,
111.000,-2.430,
112.000,-2.500,
113.000,-2.570,
114.000,-2.640,
115.000,-2.710,
116.000,-2.790,
117.000,-2.860,
118.000,-2.930,
119.000,-3.000,
120.000,-3.060,
121.000,-3.130,
122.000,-3.200,
123.000,-3.270,
124.000,-3.330,
125.000,-3.390,
126.000,-3.460,
127.000,-3.520,
128.000,-3.580,
129.000,-3.640,
130.000,-3.690,
131.000,-3.750,
132.000,-3.800,
133.000,-3.850,
134.000,-3.900,
135.000,-3.950,
136.000,-4.000,
137.000,-4.040,
138.000,-4.090,
139.000,-4.130,
140.000,-4.170,
141.000,-4.210,
142.000,-4.240,
143.000,-4.270,
144.000,-4.310,
145.000,-4.340,
146.000,-4.360,
147.000,-4.390,
148.000,-4.420,
149.000,-4.440,
150.000,-4.460,
151.000,-4.480,
152.000,-4.500,
153.000,-4.520,
154.000,-4.530,
155.000,-4.550,
156.000,-4.560,
157.000,-4.570,
158.000,-4.590,
159.000,-4.600,
160.000,-4.600,
161.000,-4.610,
162.000,-4.620,
163.000,-4.630,
164.000,-4.630,
165.000,-4.640,
166.000,-4.640,
167.000,-4.650,
168.000,-4.650,
169.000,-4.650,
170.000,-4.660,
171.000,-4.660,
172.000,-4.660,
173.000,-4.660,
174.000,-4.660,
175.000,-4.660,
176.000,-4.670,
177.000,-4.670,
178.000,-4.670,
179.000,-4.670,
PATCUT:,EL
POLARI:,V/V
NUPOIN:,360
FSTLST:,-180,179
-180.000,-4.450,
-179.000,-4.380,
-178.000,-4.340,
-177.000,-4.340,
-176.000,-4.360,
-175.000,-4.420,
-174.000,-4.500,
-173.000,-4.620,
-172.000,-4.770,
-171.000,-4.960,
-170.000,-5.180,
-169.000,-5.430,
-168.000,-5.720,
-167.000,-6.040,
-166.000,-6.410,
-165.000,-6.810,
-164.000,-7.260,
-163.000,-7.760,
-162.000,-8.300,
-161.000,-8.890,
-160.000,-9.540,
-159.000,-10.250,
-158.000,-11.030,
-157.000,-11.890,
-156.000,-12.820,
-155.000,-13.850,
-154.000,-14.980,
-153.000,-16.200,
-152.000,-17.530,
-151.000,-18.900,
-150.000,-20.240,
-149.000,-21.350,
-148.000,-21.970,
-147.000,-21.920,
-146.000,-21.320,
-145.000,-20.410,
-144.000,-19.430,
-143.000,-18.480,
-142.000,-17.620,
-141.000,-16.860,
-140.000,-16.200,
-139.000,-15.630,
-138.000,-15.150,
-137.000,-14.740,
-136.000,-14.400,
-135.000,-14.120,
-134.000,-13.900,
-133.000,-13.730,
-132.000,-13.610,
-131.000,-13.540,
-130.000,-13.500,
-129.000,-13.510,
-128.000,-13.560,
-127.000,-13.650,
-126.000,-13.770,
-125.000,-13.930,
-124.000,-14.130,
-123.000,-14.370,
-122.000,-14.640,
-121.000,-14.950,
-120.000,-15.300,
-119.000,-15.690,
-118.000,-16.120,
-117.000,-16.600,
-116.000,-17.140,
-115.000,-17.730,
-114.000,-18.380,
-113.000,-19.110,
-112.000,-19.920,
-111.000,-20.830,
-110.000,-21.850,
-109.000,-23.020,
-108.000,-24.370,
-107.000,-25.940,
-106.000,-27.800,
-105.000,-29.990,
-104.000,-32.370,
-103.000,-34.070,
-102.000,-33.570,
-101.000,-31.410,
-100.000,-29.080,
-99.000,-27.040,
-98.000,-25.310,
-97.000,-23.850,
-96.000,-22.580,
-95.000,-21.480,
-94.000,-20.500,
-93.000,-19.630,
-92.000,-18.850,
-91.000,-18.140,
-90.000,-17.490,
-89.000,-16.890,
-88.000,-16.350,
-87.000,-15.840,
-86.000,-15.370,
-85.000,-14.940,
-84.000,-14.540,
-83.000,-14.160,
-82.000,-13.820,
-81.000,-13.490,
-80.000,-13.190,
-79.000,-12.920,
-78.000,-12.660,
-77.000,-12.430,
-76.000,-12.210,
-75.000,-12.010,
-74.000,-11.830,
-73.000,-11.670,
-72.000,-11.530,
-71.000,-11.410,
-70.000,-11.310,
-69.000,-11.220,
-68.000,-11.160,
-67.000,-11.110,
-66.000,-11.080,
-65.000,-11.080,
-64.000,-11.090,
-63.000,-11.130,
-62.000,-11.200,
-61.000,-11.290,
-60.000,-11.400,
-59.000,-11.550,
-58.000,-11.720,
-57.000,-11.930,
-56.000,-12.180,
-55.000,-12.470,
-54.000,-12.800,
-53.000,-13.180,
-52.000,-13.620,
-51.000,-14.130,
-50.000,-14.710,
-49.000,-15.390,
-48.000,-16.170,
-47.000,-17.080,
-46.000,-18.140,
-45.000,-19.400,
-44.000,-20.900,
-43.000,-22.630,
-42.000,-24.460,
-41.000,-25.800,
-40.000,-25.570,
-39.000,-23.830,
-38.000,-21.610,
-37.000,-19.510,
-36.000,-17.650,
-35.000,-16.030,
-34.000,-14.590,
-33.000,-13.310,
-32.000,-12.170,
-31.000,-11.130,
-30.000,-10.180,
-29.000,-9.310,
-28.000,-8.510,
-27.000,-7.760,
-26.000,-7.070,
-25.000,-6.430,
-24.000,-5.830,
-23.000,-5.270,
-22.000,-4.750,
-21.000,-4.270,
-20.000,-3.810,
-19.000,-3.390,
-18.000,-2.990,
-17.000,-2.620,
-16.000,-2.280,
-15.000,-1.970,
-14.000,-1.680,
-13.000,-1.410,
-12.000,-1.170,
-11.000,-0.950,
-10.000,-0.760,
-9.000,-0.580,
-8.000,-0.430,
-7.000,-0.310,
-6.000,-0.200,
-5.000,-0.120,
-4.000,-0.060,
-3.000,-0.020,
-2.000,0.000,
-1.000,0.000,
0.000,-0.030,
1.000,-0.030,
2.000,-0.080,
3.000,-0.150,
4.000,-0.250,
5.000,-0.370,
6.000,-0.510,
7.000,-0.670,
8.000,-0.860,
9.000,-1.080,
10.000,-1.320,
11.000,-1.590,
12.000,-1.880,
13.000,-2.200,
14.000,-2.560,
15.000,-2.940,
16.000,-3.360,
17.000,-3.810,
18.000,-4.300,
19.000,-4.830,
20.000,-5.400,
21.000,-6.010,
22.000,-6.680,
23.000,-7.400,
24.000,-8.190,
25.000,-9.050,
26.000,-9.990,
27.000,-11.040,
28.000,-12.190,
29.000,-13.490,
30.000,-14.970,
31.000,-16.660,
32.000,-18.640,
33.000,-20.940,
34.000,-23.510,
35.000,-25.650,
36.000,-25.790,
37.000,-23.990,
38.000,-21.820,
39.000,-19.910,
40.000,-18.330,
41.000,-17.030,
42.000,-15.950,
43.000,-15.030,
44.000,-14.260,
45.000,-13.600,
46.000,-13.030,
47.000,-12.540,
48.000,-12.120,
49.000,-11.750,
50.000,-11.440,
51.000,-11.180,
52.000,-10.950,
53.000,-10.770,
54.000,-10.610,
55.000,-10.490,
56.000,-10.400,
57.000,-10.330,
58.000,-10.290,
59.000,-10.270,
60.000,-10.270,
61.000,-10.290,
62.000,-10.330,
63.000,-10.390,
64.000,-10.470,
65.000,-10.560,
66.000,-10.670,
67.000,-10.790,
68.000,-10.930,
69.000,-11.090,
70.000,-11.260,
71.000,-11.440,
72.000,-11.630,
73.000,-11.840,
74.000,-12.060,
75.000,-12.290,
76.000,-12.530,
77.000,-12.790,
78.000,-13.050,
79.000,-13.330,
80.000,-13.610,
81.000,-13.900,
82.000,-14.200,
83.000,-14.510,
84.000,-14.820,
85.000,-15.140,
86.000,-15.450,
87.000,-15.770,
88.000,-16.080,
89.000,-16.380,
90.000,-16.670,
91.000,-16.950,
92.000,-17.450,
93.000,-17.660,
94.000,-17.850,
95.000,-17.990,
96.000,-18.110,
97.000,-18.180,
98.000,-18.220,
99.000,-18.230,
100.000,-18.200,
101.000,-18.140,
102.000,-18.050,
103.000,-17.940,
104.000,-17.800,
105.000,-17.660,
106.000,-17.500,
107.000,-17.330,
108.000,-17.160,
109.000,-16.980,
110.000,-16.800,
111.000,-16.630,
112.000,-16.450,
113.000,-16.280,
114.000,-16.120,
115.000,-15.960,
116.000,-15.800,
117.000,-15.650,
118.000,-15.500,
119.000,-15.370,
120.000,-15.230,
121.000,-15.110,
122.000,-14.990,
123.000,-14.880,
124.000,-14.780,
125.000,-14.680,
126.000,-14.600,
127.000,-14.530,
128.000,-14.460,
129.000,-14.410,
130.000,-14.380,
131.000,-14.360,
132.000,-14.350,
133.000,-14.370,
134.000,-14.410,
135.000,-14.470,
136.000,-14.560,
137.000,-14.680,
138.000,-14.830,
139.000,-15.020,
140.000,-15.250,
141.000,-15.530,
142.000,-15.860,
143.000,-16.240,
144.000,-16.690,
145.000,-17.200,
146.000,-17.780,
147.000,-18.420,
148.000,-19.120,
149.000,-19.850,
150.000,-20.530,
151.000,-21.050,
152.000,-21.270,
153.000,-21.070,
154.000,-20.440,
155.000,-19.480,
156.000,-18.350,
157.000,-17.170,
158.000,-16.000,
159.000,-14.890,
160.000,-13.850,
161.000,-12.880,
162.000,-11.990,
163.000,-11.160,
164.000,-10.400,
165.000,-9.700,
166.000,-9.050,
167.000,-8.460,
168.000,-7.910,
169.000,-7.420,
170.000,-6.960,
171.000,-6.550,
172.000,-6.170,
173.000,-5.840,
174.000,-5.540,
175.000,-5.270,
176.000,-5.040,
177.000,-4.850,
178.000,-4.680,
179.000,-4.550,
ENDFIL:,EOF
