REVNUM:,NSMA WG16.99.050
REVDAT:,19990520
ANTMAN:,KATHREIN
MODNUM:,775738
DESCR1:,Yagi
DESCR2:,5.5 dBd - Vertical polarization
DESCR3:,118.5 degree
DTDATA:,20070123
LOWFRQ:,87.5
HGHFRQ:,108
GUNITS:,DBD/DBR
MDGAIN:,5.5
AZWIDT:,118
ELWIDT:,62.5
ELTILT:,0.0
ANTLEN:,1.75
ANTWID:,0.00
ANTDEP:,1.60
ANTWGT:,20.0
PATTYP:,TYPICAL
NOFREQ:,1
PATFRE:,100.0
NUMCUT:,2
PATCUT:,AZ
POLARI:,V/V
NUPOIN:,360
FSTLST:,-180,179
-180.000,-12.940,
-179.000,-12.960,
-178.000,-12.960,
-177.000,-12.960,
-176.000,-12.950,
-175.000,-12.940,
-174.000,-12.940,
-173.000,-12.940,
-172.000,-12.950,
-171.000,-12.970,
-170.000,-13.000,
-169.000,-13.010,
-168.000,-13.030,
-167.000,-13.040,
-166.000,-13.060,
-165.000,-13.080,
-164.000,-13.120,
-163.000,-13.150,
-162.000,-13.170,
-161.000,-13.200,
-160.000,-13.220,
-159.000,-13.250,
-158.000,-13.270,
-157.000,-13.310,
-156.000,-13.340,
-155.000,-13.380,
-154.000,-13.410,
-153.000,-13.450,
-152.000,-13.490,
-151.000,-13.520,
-150.000,-13.560,
-149.000,-13.600,
-148.000,-13.640,
-147.000,-13.690,
-146.000,-13.740,
-145.000,-13.790,
-144.000,-13.830,
-143.000,-13.870,
-142.000,-13.880,
-141.000,-13.900,
-140.000,-13.910,
-139.000,-13.930,
-138.000,-13.950,
-137.000,-13.960,
-136.000,-13.980,
-135.000,-13.980,
-134.000,-13.990,
-133.000,-14.010,
-132.000,-14.010,
-131.000,-14.010,
-130.000,-14.000,
-129.000,-13.970,
-128.000,-13.920,
-127.000,-13.870,
-126.000,-13.820,
-125.000,-13.760,
-124.000,-13.710,
-123.000,-13.650,
-122.000,-13.580,
-121.000,-13.520,
-120.000,-13.440,
-119.000,-13.360,
-118.000,-13.260,
-117.000,-13.160,
-116.000,-13.050,
-115.000,-12.930,
-114.000,-12.810,
-113.000,-12.680,
-112.000,-12.540,
-111.000,-12.400,
-110.000,-12.240,
-109.000,-12.080,
-108.000,-11.920,
-107.000,-11.750,
-106.000,-11.580,
-105.000,-11.400,
-104.000,-11.220,
-103.000,-11.040,
-102.000,-10.840,
-101.000,-10.640,
-100.000,-10.440,
-99.000,-10.240,
-98.000,-10.040,
-97.000,-9.840,
-96.000,-9.640,
-95.000,-9.430,
-94.000,-9.230,
-93.000,-9.020,
-92.000,-8.810,
-91.000,-8.600,
-90.000,-8.390,
-89.000,-8.180,
-88.000,-7.970,
-87.000,-7.760,
-86.000,-7.550,
-85.000,-7.350,
-84.000,-7.150,
-83.000,-6.950,
-82.000,-6.760,
-81.000,-6.570,
-80.000,-6.380,
-79.000,-6.190,
-78.000,-6.000,
-77.000,-5.820,
-76.000,-5.630,
-75.000,-5.450,
-74.000,-5.270,
-73.000,-5.090,
-72.000,-4.920,
-71.000,-4.750,
-70.000,-4.580,
-69.000,-4.420,
-68.000,-4.260,
-67.000,-4.110,
-66.000,-3.950,
-65.000,-3.800,
-64.000,-3.660,
-63.000,-3.520,
-62.000,-3.380,
-61.000,-3.240,
-60.000,-3.110,
-59.000,-2.980,
-58.000,-2.850,
-57.000,-2.730,
-56.000,-2.610,
-55.000,-2.490,
-54.000,-2.370,
-53.000,-2.260,
-52.000,-2.150,
-51.000,-2.050,
-50.000,-1.950,
-49.000,-1.850,
-48.000,-1.760,
-47.000,-1.670,
-46.000,-1.580,
-45.000,-1.500,
-44.000,-1.410,
-43.000,-1.340,
-42.000,-1.260,
-41.000,-1.190,
-40.000,-1.120,
-39.000,-1.060,
-38.000,-1.000,
-37.000,-0.940,
-36.000,-0.880,
-35.000,-0.830,
-34.000,-0.770,
-33.000,-0.720,
-32.000,-0.670,
-31.000,-0.630,
-30.000,-0.580,
-29.000,-0.540,
-28.000,-0.510,
-27.000,-0.470,
-26.000,-0.440,
-25.000,-0.410,
-24.000,-0.370,
-23.000,-0.340,
-22.000,-0.320,
-21.000,-0.290,
-20.000,-0.270,
-19.000,-0.250,
-18.000,-0.230,
-17.000,-0.200,
-16.000,-0.190,
-15.000,-0.170,
-14.000,-0.150,
-13.000,-0.130,
-12.000,-0.120,
-11.000,-0.100,
-10.000,-0.080,
-9.000,-0.070,
-8.000,-0.050,
-7.000,-0.040,
-6.000,-0.040,
-5.000,-0.030,
-4.000,-0.030,
-3.000,-0.030,
-2.000,-0.030,
-1.000,-0.020,
0.000,0.000,
1.000,0.000,
2.000,0.000,
3.000,-0.010,
4.000,-0.010,
5.000,-0.010,
6.000,-0.010,
7.000,-0.020,
8.000,-0.030,
9.000,-0.050,
10.000,-0.060,
11.000,-0.080,
12.000,-0.090,
13.000,-0.110,
14.000,-0.130,
15.000,-0.150,
16.000,-0.160,
17.000,-0.180,
18.000,-0.200,
19.000,-0.220,
20.000,-0.250,
21.000,-0.270,
22.000,-0.300,
23.000,-0.320,
24.000,-0.350,
25.000,-0.380,
26.000,-0.420,
27.000,-0.450,
28.000,-0.480,
29.000,-0.520,
30.000,-0.560,
31.000,-0.610,
32.000,-0.650,
33.000,-0.700,
34.000,-0.750,
35.000,-0.800,
36.000,-0.860,
37.000,-0.920,
38.000,-0.970,
39.000,-1.030,
40.000,-1.100,
41.000,-1.160,
42.000,-1.240,
43.000,-1.310,
44.000,-1.390,
45.000,-1.470,
46.000,-1.560,
47.000,-1.650,
48.000,-1.740,
49.000,-1.830,
50.000,-1.930,
51.000,-2.030,
52.000,-2.130,
53.000,-2.240,
54.000,-2.350,
55.000,-2.470,
56.000,-2.590,
57.000,-2.710,
58.000,-2.830,
59.000,-2.960,
60.000,-3.090,
61.000,-3.220,
62.000,-3.350,
63.000,-3.490,
64.000,-3.640,
65.000,-3.780,
66.000,-3.930,
67.000,-4.080,
68.000,-4.240,
69.000,-4.400,
70.000,-4.560,
71.000,-4.720,
72.000,-4.890,
73.000,-5.070,
74.000,-5.250,
75.000,-5.430,
76.000,-5.610,
77.000,-5.790,
78.000,-5.980,
79.000,-6.170,
80.000,-6.360,
81.000,-6.550,
82.000,-6.740,
83.000,-6.930,
84.000,-7.120,
85.000,-7.320,
86.000,-7.530,
87.000,-7.730,
88.000,-7.940,
89.000,-8.150,
90.000,-8.360,
91.000,-8.580,
92.000,-8.790,
93.000,-9.000,
94.000,-9.210,
95.000,-9.410,
96.000,-9.620,
97.000,-9.820,
98.000,-10.020,
99.000,-10.220,
100.000,-10.420,
101.000,-10.620,
102.000,-10.820,
103.000,-11.010,
104.000,-11.200,
105.000,-11.380,
106.000,-11.550,
107.000,-11.730,
108.000,-11.890,
109.000,-12.060,
110.000,-12.220,
111.000,-12.370,
112.000,-12.520,
113.000,-12.660,
114.000,-12.790,
115.000,-12.910,
116.000,-13.020,
117.000,-13.140,
118.000,-13.240,
119.000,-13.340,
120.000,-13.420,
121.000,-13.490,
122.000,-13.560,
123.000,-13.630,
124.000,-13.680,
125.000,-13.740,
126.000,-13.790,
127.000,-13.850,
128.000,-13.900,
129.000,-13.940,
130.000,-13.980,
131.000,-13.990,
132.000,-13.990,
133.000,-13.980,
134.000,-13.970,
135.000,-13.960,
136.000,-13.950,
137.000,-13.940,
138.000,-13.920,
139.000,-13.910,
140.000,-13.890,
141.000,-13.880,
142.000,-13.860,
143.000,-13.840,
144.000,-13.810,
145.000,-13.770,
146.000,-13.720,
147.000,-13.670,
148.000,-13.620,
149.000,-13.570,
150.000,-13.530,
151.000,-13.500,
152.000,-13.460,
153.000,-13.420,
154.000,-13.390,
155.000,-13.350,
156.000,-13.320,
157.000,-13.290,
158.000,-13.250,
159.000,-13.220,
160.000,-13.200,
161.000,-13.170,
162.000,-13.150,
163.000,-13.120,
164.000,-13.090,
165.000,-13.060,
166.000,-13.030,
167.000,-13.010,
168.000,-13.000,
169.000,-12.990,
170.000,-12.970,
171.000,-12.950,
172.000,-12.930,
173.000,-12.910,
174.000,-12.910,
175.000,-12.920,
176.000,-12.930,
177.000,-12.930,
178.000,-12.940,
179.000,-12.940,
PATCUT:,EL
POLARI:,V/V
NUPOIN:,360
FSTLST:,-180,179
-180.000,-14.570,
-179.000,-14.520,
-178.000,-14.480,
-177.000,-14.430,
-176.000,-14.400,
-175.000,-14.360,
-174.000,-14.330,
-173.000,-14.300,
-172.000,-14.280,
-171.000,-14.250,
-170.000,-14.230,
-169.000,-14.210,
-168.000,-14.190,
-167.000,-14.180,
-166.000,-14.170,
-165.000,-14.160,
-164.000,-14.170,
-163.000,-14.170,
-162.000,-14.190,
-161.000,-14.200,
-160.000,-14.220,
-159.000,-14.250,
-158.000,-14.280,
-157.000,-14.320,
-156.000,-14.360,
-155.000,-14.400,
-154.000,-14.450,
-153.000,-14.510,
-152.000,-14.580,
-151.000,-14.650,
-150.000,-14.740,
-149.000,-14.820,
-148.000,-14.920,
-147.000,-15.030,
-146.000,-15.140,
-145.000,-15.250,
-144.000,-15.380,
-143.000,-15.510,
-142.000,-15.660,
-141.000,-15.800,
-140.000,-15.960,
-139.000,-16.130,
-138.000,-16.290,
-137.000,-16.460,
-136.000,-16.640,
-135.000,-16.820,
-134.000,-17.010,
-133.000,-17.200,
-132.000,-17.400,
-131.000,-17.600,
-130.000,-17.820,
-129.000,-18.030,
-128.000,-18.270,
-127.000,-18.500,
-126.000,-18.740,
-125.000,-18.990,
-124.000,-19.240,
-123.000,-19.500,
-122.000,-19.770,
-121.000,-20.030,
-120.000,-20.320,
-119.000,-20.610,
-118.000,-20.920,
-117.000,-21.230,
-116.000,-21.570,
-115.000,-21.910,
-114.000,-22.260,
-113.000,-22.620,
-112.000,-22.990,
-111.000,-23.380,
-110.000,-23.770,
-109.000,-24.180,
-108.000,-24.610,
-107.000,-25.070,
-106.000,-25.530,
-105.000,-26.040,
-104.000,-26.600,
-103.000,-27.190,
-102.000,-27.850,
-101.000,-28.590,
-100.000,-29.400,
-99.000,-30.340,
-98.000,-31.370,
-97.000,-32.540,
-96.000,-33.850,
-95.000,-35.290,
-94.000,-36.710,
-93.000,-38.060,
-92.000,-39.090,
-91.000,-39.660,
-90.000,-39.410,
-89.000,-38.560,
-88.000,-37.080,
-87.000,-35.440,
-86.000,-33.680,
-85.000,-32.010,
-84.000,-30.460,
-83.000,-29.040,
-82.000,-27.770,
-81.000,-26.630,
-80.000,-25.580,
-79.000,-24.630,
-78.000,-23.740,
-77.000,-22.910,
-76.000,-22.120,
-75.000,-21.360,
-74.000,-20.630,
-73.000,-19.910,
-72.000,-19.220,
-71.000,-18.550,
-70.000,-17.900,
-69.000,-17.260,
-68.000,-16.650,
-67.000,-16.050,
-66.000,-15.480,
-65.000,-14.920,
-64.000,-14.380,
-63.000,-13.860,
-62.000,-13.360,
-61.000,-12.860,
-60.000,-12.380,
-59.000,-11.910,
-58.000,-11.450,
-57.000,-11.000,
-56.000,-10.560,
-55.000,-10.140,
-54.000,-9.720,
-53.000,-9.320,
-52.000,-8.920,
-51.000,-8.550,
-50.000,-8.190,
-49.000,-7.830,
-48.000,-7.490,
-47.000,-7.160,
-46.000,-6.840,
-45.000,-6.530,
-44.000,-6.220,
-43.000,-5.920,
-42.000,-5.620,
-41.000,-5.330,
-40.000,-5.050,
-39.000,-4.770,
-38.000,-4.510,
-37.000,-4.250,
-36.000,-4.010,
-35.000,-3.770,
-34.000,-3.550,
-33.000,-3.330,
-32.000,-3.120,
-31.000,-2.920,
-30.000,-2.730,
-29.000,-2.540,
-28.000,-2.360,
-27.000,-2.190,
-26.000,-2.020,
-25.000,-1.860,
-24.000,-1.710,
-23.000,-1.570,
-22.000,-1.430,
-21.000,-1.300,
-20.000,-1.180,
-19.000,-1.060,
-18.000,-0.950,
-17.000,-0.840,
-16.000,-0.750,
-15.000,-0.650,
-14.000,-0.570,
-13.000,-0.490,
-12.000,-0.420,
-11.000,-0.350,
-10.000,-0.290,
-9.000,-0.240,
-8.000,-0.190,
-7.000,-0.150,
-6.000,-0.110,
-5.000,-0.080,
-4.000,-0.060,
-3.000,-0.040,
-2.000,-0.020,
-1.000,-0.010,
0.000,0.000,
1.000,-0.030,
2.000,-0.040,
3.000,-0.050,
4.000,-0.070,
5.000,-0.100,
6.000,-0.130,
7.000,-0.170,
8.000,-0.220,
9.000,-0.270,
10.000,-0.330,
11.000,-0.390,
12.000,-0.460,
13.000,-0.540,
14.000,-0.620,
15.000,-0.710,
16.000,-0.810,
17.000,-0.910,
18.000,-1.020,
19.000,-1.130,
20.000,-1.250,
21.000,-1.380,
22.000,-1.510,
23.000,-1.650,
24.000,-1.790,
25.000,-1.940,
26.000,-2.100,
27.000,-2.260,
28.000,-2.430,
29.000,-2.610,
30.000,-2.790,
31.000,-2.990,
32.000,-3.180,
33.000,-3.390,
34.000,-3.600,
35.000,-3.820,
36.000,-4.040,
37.000,-4.270,
38.000,-4.500,
39.000,-4.740,
40.000,-4.990,
41.000,-5.240,
42.000,-5.500,
43.000,-5.770,
44.000,-6.040,
45.000,-6.320,
46.000,-6.610,
47.000,-6.900,
48.000,-7.200,
49.000,-7.510,
50.000,-7.820,
51.000,-8.140,
52.000,-8.470,
53.000,-8.800,
54.000,-9.140,
55.000,-9.490,
56.000,-9.840,
57.000,-10.200,
58.000,-10.570,
59.000,-10.950,
60.000,-11.330,
61.000,-11.730,
62.000,-12.130,
63.000,-12.540,
64.000,-12.950,
65.000,-13.380,
66.000,-13.820,
67.000,-14.270,
68.000,-14.730,
69.000,-15.200,
70.000,-15.690,
71.000,-16.180,
72.000,-16.700,
73.000,-17.220,
74.000,-17.760,
75.000,-18.320,
76.000,-18.880,
77.000,-19.490,
78.000,-20.100,
79.000,-20.750,
80.000,-21.440,
81.000,-22.160,
82.000,-22.910,
83.000,-23.700,
84.000,-24.550,
85.000,-25.430,
86.000,-26.380,
87.000,-27.390,
88.000,-28.470,
89.000,-29.630,
90.000,-30.900,
91.000,-32.220,
92.000,-33.600,
93.000,-34.890,
94.000,-36.030,
95.000,-36.830,
96.000,-37.200,
97.000,-37.020,
98.000,-36.420,
99.000,-35.550,
100.000,-34.470,
101.000,-33.350,
102.000,-32.320,
103.000,-31.370,
104.000,-30.540,
105.000,-29.790,
106.000,-29.120,
107.000,-28.520,
108.000,-27.980,
109.000,-27.470,
110.000,-26.990,
111.000,-26.540,
112.000,-26.110,
113.000,-25.700,
114.000,-25.300,
115.000,-24.910,
116.000,-24.550,
117.000,-24.210,
118.000,-23.860,
119.000,-23.540,
120.000,-23.220,
121.000,-22.910,
122.000,-22.620,
123.000,-22.320,
124.000,-22.030,
125.000,-21.740,
126.000,-21.460,
127.000,-21.190,
128.000,-20.930,
129.000,-20.680,
130.000,-20.430,
131.000,-20.190,
132.000,-19.970,
133.000,-19.740,
134.000,-19.530,
135.000,-19.320,
136.000,-19.120,
137.000,-18.940,
138.000,-18.750,
139.000,-18.570,
140.000,-18.390,
141.000,-18.220,
142.000,-18.050,
143.000,-17.890,
144.000,-17.730,
145.000,-17.580,
146.000,-17.440,
147.000,-17.300,
148.000,-17.160,
149.000,-17.030,
150.000,-16.900,
151.000,-16.780,
152.000,-16.660,
153.000,-16.550,
154.000,-16.440,
155.000,-16.350,
156.000,-16.260,
157.000,-16.170,
158.000,-16.090,
159.000,-16.020,
160.000,-15.930,
161.000,-15.850,
162.000,-15.770,
163.000,-15.690,
164.000,-15.600,
165.000,-15.520,
166.000,-15.440,
167.000,-15.360,
168.000,-15.280,
169.000,-15.200,
170.000,-15.140,
171.000,-15.070,
172.000,-15.010,
173.000,-14.950,
174.000,-14.900,
175.000,-14.840,
176.000,-14.780,
177.000,-14.730,
178.000,-14.680,
179.000,-14.620,
ENDFIL:,EOF
