REVNUM:1.0, 
ANTMAN:,Sinclair Technologies Inc. 
MODNUM:,SC281-HF4LDF(D00)
DTDATA:,20042906
LOWFRQ:,165
HGHFRQ:,165
GUNITS:,DBD/DBR
MDGAIN:,5,0.0
AZWIDT:,17.5
FRTOBA:,0,0
ELTILT:,0,0
PATTYP:,typical
NOFREQ:,1
PATFRE:,165
NUMCUT:,2
PATCUT:,V
POLARI:,V/V
NUPOIN:,360
FSTLST:,-180.000,+179.000
-180.000,0.000,
-179.000,-0.030,
-178.000,-0.130,
-177.000,-0.310,
-176.000,-0.550,
-175.000,-0.910,
-174.000,-1.420,
-173.000,-2.030,
-172.000,-2.710,
-171.000,-3.450,
-170.000,-4.320,
-169.000,-5.300,
-168.000,-6.410,
-167.000,-7.810,
-166.000,-9.550,
-165.000,-11.630,
-164.000,-13.820,
-163.000,-16.400,
-162.000,-20.060,
-161.000,-23.210,
-160.000,-23.300,
-159.000,-21.230,
-158.000,-19.110,
-157.000,-17.250,
-156.000,-15.540,
-155.000,-14.330,
-154.000,-13.490,
-153.000,-12.900,
-152.000,-12.530,
-151.000,-12.380,
-150.000,-12.410,
-149.000,-12.610,
-148.000,-13.010,
-147.000,-13.570,
-146.000,-14.350,
-145.000,-15.460,
-144.000,-16.790,
-143.000,-18.190,
-142.000,-19.770,
-141.000,-22.710,
-140.000,-27.610,
-139.000,-31.640,
-138.000,-31.830,
-137.000,-28.860,
-136.000,-25.460,
-135.000,-22.820,
-134.000,-20.820,
-133.000,-19.270,
-132.000,-18.010,
-131.000,-16.900,
-130.000,-16.030,
-129.000,-15.390,
-128.000,-14.900,
-127.000,-14.610,
-126.000,-14.430,
-125.000,-14.310,
-124.000,-14.260,
-123.000,-14.290,
-122.000,-14.390,
-121.000,-14.610,
-120.000,-14.910,
-119.000,-15.240,
-118.000,-15.590,
-117.000,-15.930,
-116.000,-16.270,
-115.000,-16.660,
-114.000,-17.140,
-113.000,-17.790,
-112.000,-18.530,
-111.000,-19.270,
-110.000,-19.970,
-109.000,-20.610,
-108.000,-21.250,
-107.000,-21.930,
-106.000,-22.660,
-105.000,-23.430,
-104.000,-24.240,
-103.000,-24.950,
-102.000,-25.630,
-101.000,-26.370,
-100.000,-27.170,
-99.000,-28.150,
-98.000,-28.960,
-97.000,-29.620,
-96.000,-30.400,
-95.000,-31.330,
-94.000,-32.240,
-93.000,-32.980,
-92.000,-33.510,
-91.000,-33.860,
-90.000,-34.010,
-89.000,-33.860,
-88.000,-33.510,
-87.000,-32.980,
-86.000,-32.240,
-85.000,-31.330,
-84.000,-30.390,
-83.000,-29.620,
-82.000,-28.960,
-81.000,-28.150,
-80.000,-27.170,
-79.000,-26.370,
-78.000,-25.630,
-77.000,-24.950,
-76.000,-24.240,
-75.000,-23.430,
-74.000,-22.670,
-73.000,-21.930,
-72.000,-21.250,
-71.000,-20.610,
-70.000,-19.970,
-69.000,-19.270,
-68.000,-18.530,
-67.000,-17.790,
-66.000,-17.140,
-65.000,-16.660,
-64.000,-16.270,
-63.000,-15.930,
-62.000,-15.590,
-61.000,-15.240,
-60.000,-14.910,
-59.000,-14.610,
-58.000,-14.390,
-57.000,-14.290,
-56.000,-14.260,
-55.000,-14.310,
-54.000,-14.430,
-53.000,-14.610,
-52.000,-14.900,
-51.000,-15.390,
-50.000,-16.030,
-49.000,-16.900,
-48.000,-18.010,
-47.000,-19.270,
-46.000,-20.820,
-45.000,-22.820,
-44.000,-25.460,
-43.000,-28.860,
-42.000,-31.830,
-41.000,-31.640,
-40.000,-27.610,
-39.000,-22.710,
-38.000,-19.770,
-37.000,-18.190,
-36.000,-16.790,
-35.000,-15.460,
-34.000,-14.350,
-33.000,-13.570,
-32.000,-13.010,
-31.000,-12.610,
-30.000,-12.410,
-29.000,-12.380,
-28.000,-12.530,
-27.000,-12.900,
-26.000,-13.490,
-25.000,-14.330,
-24.000,-15.540,
-23.000,-17.250,
-22.000,-19.110,
-21.000,-21.230,
-20.000,-23.300,
-19.000,-23.210,
-18.000,-20.060,
-17.000,-16.400,
-16.000,-13.820,
-15.000,-11.630,
-14.000,-9.550,
-13.000,-7.810,
-12.000,-6.410,
-11.000,-5.300,
-10.000,-4.320,
-9.000,-3.450,
-8.000,-2.710,
-7.000,-2.030,
-6.000,-1.420,
-5.000,-0.910,
-4.000,-0.550,
-3.000,-0.310,
-2.000,-0.130,
-1.000,-0.030,
0.000,-0.010,
1.000,-0.090,
2.000,-0.250,
3.000,-0.460,
4.000,-0.690,
5.000,-0.960,
6.000,-1.330,
7.000,-1.930,
8.000,-2.700,
9.000,-3.470,
10.000,-4.200,
11.000,-4.980,
12.000,-5.860,
13.000,-6.900,
14.000,-8.340,
15.000,-10.330,
16.000,-12.630,
17.000,-15.210,
18.000,-17.930,
19.000,-19.710,
20.000,-19.760,
21.000,-18.680,
22.000,-17.070,
23.000,-15.290,
24.000,-13.750,
25.000,-12.700,
26.000,-12.090,
27.000,-11.700,
28.000,-11.440,
29.000,-11.310,
30.000,-11.310,
31.000,-11.510,
32.000,-11.850,
33.000,-12.200,
34.000,-12.610,
35.000,-13.100,
36.000,-13.800,
37.000,-14.850,
38.000,-16.150,
39.000,-17.970,
40.000,-20.140,
41.000,-22.620,
42.000,-26.130,
43.000,-29.740,
44.000,-30.970,
45.000,-30.540,
46.000,-28.400,
47.000,-24.740,
48.000,-22.080,
49.000,-20.660,
50.000,-19.620,
51.000,-18.670,
52.000,-17.880,
53.000,-17.410,
54.000,-17.140,
55.000,-16.930,
56.000,-16.790,
57.000,-16.740,
58.000,-16.780,
59.000,-16.880,
60.000,-17.040,
61.000,-17.250,
62.000,-17.480,
63.000,-17.760,
64.000,-18.040,
65.000,-18.340,
66.000,-18.680,
67.000,-19.140,
68.000,-19.640,
69.000,-20.030,
70.000,-20.400,
71.000,-20.860,
72.000,-21.400,
73.000,-21.930,
74.000,-22.460,
75.000,-23.130,
76.000,-23.880,
77.000,-24.470,
78.000,-25.040,
79.000,-25.580,
80.000,-26.100,
81.000,-26.650,
82.000,-27.200,
83.000,-27.840,
84.000,-28.430,
85.000,-28.840,
86.000,-29.150,
87.000,-29.350,
88.000,-29.470,
89.000,-29.540,
90.000,-29.560,
91.000,-29.520,
92.000,-29.410,
93.000,-29.260,
94.000,-29.010,
95.000,-28.660,
96.000,-28.160,
97.000,-27.520,
98.000,-26.920,
99.000,-26.370,
100.000,-25.830,
101.000,-25.310,
102.000,-24.750,
103.000,-24.190,
104.000,-23.510,
105.000,-22.770,
106.000,-22.180,
107.000,-21.670,
108.000,-21.120,
109.000,-20.620,
110.000,-20.210,
111.000,-19.840,
112.000,-19.400,
113.000,-18.890,
114.000,-18.490,
115.000,-18.190,
116.000,-17.900,
117.000,-17.610,
118.000,-17.360,
119.000,-17.140,
120.000,-16.950,
121.000,-16.820,
122.000,-16.750,
123.000,-16.750,
124.000,-16.850,
125.000,-17.030,
126.000,-17.260,
127.000,-17.610,
128.000,-18.240,
129.000,-19.130,
130.000,-20.130,
131.000,-21.290,
132.000,-23.190,
133.000,-26.600,
134.000,-29.780,
135.000,-30.880,
136.000,-30.690,
137.000,-28.100,
138.000,-24.210,
139.000,-21.300,
140.000,-19.020,
141.000,-16.990,
142.000,-15.460,
143.000,-14.280,
144.000,-13.410,
145.000,-12.850,
146.000,-12.390,
147.000,-12.030,
148.000,-11.670,
149.000,-11.380,
150.000,-11.290,
151.000,-11.360,
152.000,-11.560,
153.000,-11.880,
154.000,-12.350,
155.000,-13.160,
156.000,-14.470,
157.000,-16.170,
158.000,-17.940,
159.000,-19.300,
160.000,-19.930,
161.000,-19.030,
162.000,-16.590,
163.000,-13.880,
164.000,-11.450,
165.000,-9.270,
166.000,-7.540,
167.000,-6.340,
168.000,-5.410,
169.000,-4.570,
170.000,-3.840,
171.000,-3.090,
172.000,-2.300,
173.000,-1.600,
174.000,-1.120,
175.000,-0.820,
176.000,-0.560,
177.000,-0.350,
178.000,-0.160,
179.000,-0.030,
PATCUT:,H
POLARI:,V/V
NUPOIN:,360
FSTLST:,-180.000,+179.000
-180.000,0.000,
-179.000,0.000,
-178.000,0.000,
-177.000,0.000,
-176.000,0.000,
-175.000,0.000,
-174.000,0.000,
-173.000,0.000,
-172.000,0.000,
-171.000,0.000,
-170.000,0.000,
-169.000,0.000,
-168.000,0.000,
-167.000,0.000,
-166.000,0.000,
-165.000,0.000,
-164.000,0.000,
-163.000,0.000,
-162.000,0.000,
-161.000,0.000,
-160.000,0.000,
-159.000,0.000,
-158.000,0.000,
-157.000,0.000,
-156.000,0.000,
-155.000,0.000,
-154.000,0.000,
-153.000,0.000,
-152.000,0.000,
-151.000,0.000,
-150.000,0.000,
-149.000,0.000,
-148.000,0.000,
-147.000,0.000,
-146.000,0.000,
-145.000,0.000,
-144.000,0.000,
-143.000,0.000,
-142.000,0.000,
-141.000,0.000,
-140.000,0.000,
-139.000,0.000,
-138.000,0.000,
-137.000,0.000,
-136.000,0.000,
-135.000,0.000,
-134.000,0.000,
-133.000,0.000,
-132.000,0.000,
-131.000,0.000,
-130.000,0.000,
-129.000,0.000,
-128.000,0.000,
-127.000,0.000,
-126.000,0.000,
-125.000,0.000,
-124.000,0.000,
-123.000,0.000,
-122.000,0.000,
-121.000,0.000,
-120.000,0.000,
-119.000,0.000,
-118.000,0.000,
-117.000,0.000,
-116.000,0.000,
-115.000,0.000,
-114.000,0.000,
-113.000,0.000,
-112.000,0.000,
-111.000,0.000,
-110.000,0.000,
-109.000,0.000,
-108.000,0.000,
-107.000,0.000,
-106.000,0.000,
-105.000,0.000,
-104.000,0.000,
-103.000,0.000,
-102.000,0.000,
-101.000,0.000,
-100.000,0.000,
-99.000,0.000,
-98.000,0.000,
-97.000,0.000,
-96.000,0.000,
-95.000,0.000,
-94.000,0.000,
-93.000,0.000,
-92.000,0.000,
-91.000,0.000,
-90.000,0.000,
-89.000,0.000,
-88.000,0.000,
-87.000,0.000,
-86.000,0.000,
-85.000,0.000,
-84.000,0.000,
-83.000,0.000,
-82.000,0.000,
-81.000,0.000,
-80.000,0.000,
-79.000,0.000,
-78.000,0.000,
-77.000,0.000,
-76.000,0.000,
-75.000,0.000,
-74.000,0.000,
-73.000,0.000,
-72.000,0.000,
-71.000,0.000,
-70.000,0.000,
-69.000,0.000,
-68.000,0.000,
-67.000,0.000,
-66.000,0.000,
-65.000,0.000,
-64.000,0.000,
-63.000,0.000,
-62.000,0.000,
-61.000,0.000,
-60.000,0.000,
-59.000,0.000,
-58.000,0.000,
-57.000,0.000,
-56.000,0.000,
-55.000,0.000,
-54.000,0.000,
-53.000,0.000,
-52.000,0.000,
-51.000,0.000,
-50.000,0.000,
-49.000,0.000,
-48.000,0.000,
-47.000,0.000,
-46.000,0.000,
-45.000,0.000,
-44.000,0.000,
-43.000,0.000,
-42.000,0.000,
-41.000,0.000,
-40.000,0.000,
-39.000,0.000,
-38.000,0.000,
-37.000,0.000,
-36.000,0.000,
-35.000,0.000,
-34.000,0.000,
-33.000,0.000,
-32.000,0.000,
-31.000,0.000,
-30.000,0.000,
-29.000,0.000,
-28.000,0.000,
-27.000,0.000,
-26.000,0.000,
-25.000,0.000,
-24.000,0.000,
-23.000,0.000,
-22.000,0.000,
-21.000,0.000,
-20.000,0.000,
-19.000,0.000,
-18.000,0.000,
-17.000,0.000,
-16.000,0.000,
-15.000,0.000,
-14.000,0.000,
-13.000,0.000,
-12.000,0.000,
-11.000,0.000,
-10.000,0.000,
-9.000,0.000,
-8.000,0.000,
-7.000,0.000,
-6.000,0.000,
-5.000,0.000,
-4.000,0.000,
-3.000,0.000,
-2.000,0.000,
-1.000,0.000,
0.000,0.000,
1.000,0.000,
2.000,0.000,
3.000,0.000,
4.000,0.000,
5.000,0.000,
6.000,0.000,
7.000,0.000,
8.000,0.000,
9.000,0.000,
10.000,0.000,
11.000,0.000,
12.000,0.000,
13.000,0.000,
14.000,0.000,
15.000,0.000,
16.000,0.000,
17.000,0.000,
18.000,0.000,
19.000,0.000,
20.000,0.000,
21.000,0.000,
22.000,0.000,
23.000,0.000,
24.000,0.000,
25.000,0.000,
26.000,0.000,
27.000,0.000,
28.000,0.000,
29.000,0.000,
30.000,0.000,
31.000,0.000,
32.000,0.000,
33.000,0.000,
34.000,0.000,
35.000,0.000,
36.000,0.000,
37.000,0.000,
38.000,0.000,
39.000,0.000,
40.000,0.000,
41.000,0.000,
42.000,0.000,
43.000,0.000,
44.000,0.000,
45.000,0.000,
46.000,0.000,
47.000,0.000,
48.000,0.000,
49.000,0.000,
50.000,0.000,
51.000,0.000,
52.000,0.000,
53.000,0.000,
54.000,0.000,
55.000,0.000,
56.000,0.000,
57.000,0.000,
58.000,0.000,
59.000,0.000,
60.000,0.000,
61.000,0.000,
62.000,0.000,
63.000,0.000,
64.000,0.000,
65.000,0.000,
66.000,0.000,
67.000,0.000,
68.000,0.000,
69.000,0.000,
70.000,0.000,
71.000,0.000,
72.000,0.000,
73.000,0.000,
74.000,0.000,
75.000,0.000,
76.000,0.000,
77.000,0.000,
78.000,0.000,
79.000,0.000,
80.000,0.000,
81.000,0.000,
82.000,0.000,
83.000,0.000,
84.000,0.000,
85.000,0.000,
86.000,0.000,
87.000,0.000,
88.000,0.000,
89.000,0.000,
90.000,0.000,
91.000,0.000,
92.000,0.000,
93.000,0.000,
94.000,0.000,
95.000,0.000,
96.000,0.000,
97.000,0.000,
98.000,0.000,
99.000,0.000,
100.000,0.000,
101.000,0.000,
102.000,0.000,
103.000,0.000,
104.000,0.000,
105.000,0.000,
106.000,0.000,
107.000,0.000,
108.000,0.000,
109.000,0.000,
110.000,0.000,
111.000,0.000,
112.000,0.000,
113.000,0.000,
114.000,0.000,
115.000,0.000,
116.000,0.000,
117.000,0.000,
118.000,0.000,
119.000,0.000,
120.000,0.000,
121.000,0.000,
122.000,0.000,
123.000,0.000,
124.000,0.000,
125.000,0.000,
126.000,0.000,
127.000,0.000,
128.000,0.000,
129.000,0.000,
130.000,0.000,
131.000,0.000,
132.000,0.000,
133.000,0.000,
134.000,0.000,
135.000,0.000,
136.000,0.000,
137.000,0.000,
138.000,0.000,
139.000,0.000,
140.000,0.000,
141.000,0.000,
142.000,0.000,
143.000,0.000,
144.000,0.000,
145.000,0.000,
146.000,0.000,
147.000,0.000,
148.000,0.000,
149.000,0.000,
150.000,0.000,
151.000,0.000,
152.000,0.000,
153.000,0.000,
154.000,0.000,
155.000,0.000,
156.000,0.000,
157.000,0.000,
158.000,0.000,
159.000,0.000,
160.000,0.000,
161.000,0.000,
162.000,0.000,
163.000,0.000,
164.000,0.000,
165.000,0.000,
166.000,0.000,
167.000,0.000,
168.000,0.000,
169.000,0.000,
170.000,0.000,
171.000,0.000,
172.000,0.000,
173.000,0.000,
174.000,0.000,
175.000,0.000,
176.000,0.000,
177.000,0.000,
178.000,0.000,
179.000,0.000,
ENDFIL:,EOF
