REVNUM:1.0, 
ANTMAN:,Sinclair Technologies Inc. 
MODNUM:,SC389-HF3LDF(D00)
DTDATA:,20160604
LOWFRQ:,512
HGHFRQ:,512
GUNITS:,DBD/DBR
MDGAIN:,9,0.0
AZWIDT:,6.5
FRTOBA:,0.1,0
ELTILT:,0,0.5
PATTYP:,typical
NOFREQ:,1
PATFRE:,512
NUMCUT:,2
PATCUT:,V
POLARI:,V/V
NUPOIN:,360
FSTLST:,-180.000,+179.000
-180.000,0.000,
-179.000,-0.120,
-178.000,-0.890,
-177.000,-2.420,
-176.000,-4.850,
-175.000,-8.340,
-174.000,-12.330,
-173.000,-14.590,
-172.000,-14.000,
-171.000,-13.090,
-170.000,-13.670,
-169.000,-16.230,
-168.000,-20.290,
-167.000,-20.300,
-166.000,-15.000,
-165.000,-12.640,
-164.000,-12.670,
-163.000,-14.290,
-162.000,-18.180,
-161.000,-24.870,
-160.000,-27.770,
-159.000,-25.050,
-158.000,-21.420,
-157.000,-21.250,
-156.000,-24.750,
-155.000,-26.840,
-154.000,-25.940,
-153.000,-23.950,
-152.000,-19.600,
-151.000,-17.440,
-150.000,-16.900,
-149.000,-17.520,
-148.000,-19.190,
-147.000,-21.810,
-146.000,-25.500,
-145.000,-28.690,
-144.000,-27.790,
-143.000,-25.640,
-142.000,-24.400,
-141.000,-24.230,
-140.000,-25.170,
-139.000,-27.950,
-138.000,-33.160,
-137.000,-32.850,
-136.000,-26.140,
-135.000,-21.830,
-134.000,-19.020,
-133.000,-17.370,
-132.000,-16.640,
-131.000,-16.560,
-130.000,-17.190,
-129.000,-18.590,
-128.000,-21.320,
-127.000,-26.920,
-126.000,-32.350,
-125.000,-32.100,
-124.000,-25.230,
-123.000,-20.550,
-122.000,-18.120,
-121.000,-16.780,
-120.000,-16.240,
-119.000,-16.250,
-118.000,-16.740,
-117.000,-17.800,
-116.000,-19.380,
-115.000,-21.680,
-114.000,-25.440,
-113.000,-31.230,
-112.000,-31.720,
-111.000,-26.760,
-110.000,-23.490,
-109.000,-21.230,
-108.000,-19.910,
-107.000,-19.050,
-106.000,-18.690,
-105.000,-18.580,
-104.000,-18.680,
-103.000,-18.970,
-102.000,-19.560,
-101.000,-20.590,
-100.000,-21.990,
-99.000,-23.710,
-98.000,-26.270,
-97.000,-30.710,
-96.000,-32.780,
-95.000,-30.290,
-94.000,-28.440,
-93.000,-27.440,
-92.000,-27.280,
-91.000,-27.130,
-90.000,-27.070,
-89.000,-27.200,
-88.000,-27.260,
-87.000,-27.710,
-86.000,-28.910,
-85.000,-31.230,
-84.000,-32.780,
-83.000,-29.100,
-82.000,-25.250,
-81.000,-23.090,
-80.000,-21.480,
-79.000,-20.210,
-78.000,-19.300,
-77.000,-18.860,
-76.000,-18.620,
-75.000,-18.600,
-74.000,-18.770,
-73.000,-19.280,
-72.000,-20.290,
-71.000,-21.850,
-70.000,-24.460,
-69.000,-28.260,
-68.000,-32.740,
-67.000,-29.230,
-66.000,-23.980,
-65.000,-20.790,
-64.000,-18.800,
-63.000,-17.380,
-62.000,-16.520,
-61.000,-16.190,
-60.000,-16.350,
-59.000,-17.120,
-58.000,-18.780,
-57.000,-21.730,
-56.000,-27.660,
-55.000,-33.070,
-54.000,-31.010,
-53.000,-24.720,
-52.000,-20.170,
-51.000,-18.030,
-50.000,-16.900,
-49.000,-16.520,
-48.000,-16.800,
-47.000,-17.790,
-46.000,-19.830,
-45.000,-23.030,
-44.000,-28.250,
-43.000,-34.200,
-42.000,-31.390,
-41.000,-26.730,
-40.000,-24.690,
-39.000,-24.180,
-38.000,-24.680,
-37.000,-26.290,
-36.000,-28.460,
-35.000,-27.980,
-34.000,-24.160,
-33.000,-20.830,
-32.000,-18.520,
-31.000,-17.190,
-30.000,-16.940,
-29.000,-17.930,
-28.000,-20.880,
-27.000,-25.140,
-26.000,-26.080,
-25.000,-26.840,
-24.000,-23.250,
-23.000,-20.910,
-22.000,-22.310,
-21.000,-26.380,
-20.000,-27.570,
-19.000,-22.600,
-18.000,-16.530,
-17.000,-13.550,
-16.000,-12.500,
-15.000,-13.010,
-14.000,-16.750,
-13.000,-21.170,
-12.000,-18.990,
-11.000,-15.130,
-10.000,-13.280,
-9.000,-13.270,
-8.000,-14.390,
-7.000,-14.190,
-6.000,-11.060,
-5.000,-7.070,
-4.000,-3.930,
-3.000,-1.820,
-2.000,-0.560,
-1.000,-0.010,
0.000,-0.290,
1.000,-1.310,
2.000,-3.130,
3.000,-5.960,
4.000,-10.020,
5.000,-14.390,
6.000,-15.750,
7.000,-14.520,
8.000,-13.990,
9.000,-15.150,
10.000,-18.580,
11.000,-23.110,
12.000,-24.120,
13.000,-20.810,
14.000,-17.440,
15.000,-16.280,
16.000,-16.780,
17.000,-18.710,
18.000,-22.650,
19.000,-30.600,
20.000,-35.320,
21.000,-29.130,
22.000,-25.460,
23.000,-24.830,
24.000,-25.210,
25.000,-25.810,
26.000,-26.850,
27.000,-26.620,
28.000,-23.480,
29.000,-21.240,
30.000,-20.730,
31.000,-21.630,
32.000,-24.140,
33.000,-29.550,
34.000,-38.470,
35.000,-35.210,
36.000,-28.700,
37.000,-26.780,
38.000,-26.560,
39.000,-27.170,
40.000,-27.290,
41.000,-27.040,
42.000,-26.290,
43.000,-23.980,
44.000,-21.990,
45.000,-20.880,
46.000,-20.600,
47.000,-21.080,
48.000,-22.270,
49.000,-24.420,
50.000,-27.470,
51.000,-31.330,
52.000,-32.860,
53.000,-30.130,
54.000,-27.150,
55.000,-25.080,
56.000,-23.980,
57.000,-23.840,
58.000,-24.040,
59.000,-24.680,
60.000,-25.660,
61.000,-26.240,
62.000,-25.740,
63.000,-25.520,
64.000,-25.460,
65.000,-25.780,
66.000,-26.870,
67.000,-28.220,
68.000,-29.890,
69.000,-31.980,
70.000,-34.990,
71.000,-35.920,
72.000,-33.790,
73.000,-30.980,
74.000,-29.620,
75.000,-28.920,
76.000,-28.430,
77.000,-27.920,
78.000,-27.440,
79.000,-27.100,
80.000,-27.460,
81.000,-28.170,
82.000,-28.800,
83.000,-29.410,
84.000,-30.510,
85.000,-31.600,
86.000,-32.740,
87.000,-33.600,
88.000,-33.970,
89.000,-33.810,
90.000,-33.700,
91.000,-33.970,
92.000,-33.770,
93.000,-33.090,
94.000,-31.960,
95.000,-30.890,
96.000,-29.730,
97.000,-28.980,
98.000,-28.400,
99.000,-27.690,
100.000,-27.130,
101.000,-27.290,
102.000,-27.750,
103.000,-28.250,
104.000,-28.780,
105.000,-29.310,
106.000,-30.390,
107.000,-32.820,
108.000,-35.340,
109.000,-35.820,
110.000,-32.880,
111.000,-30.550,
112.000,-28.700,
113.000,-27.350,
114.000,-26.050,
115.000,-25.510,
116.000,-25.490,
117.000,-25.620,
118.000,-26.120,
119.000,-25.980,
120.000,-24.970,
121.000,-24.220,
122.000,-23.860,
123.000,-23.880,
124.000,-24.580,
125.000,-26.400,
126.000,-28.980,
127.000,-32.310,
128.000,-32.310,
129.000,-28.750,
130.000,-25.330,
131.000,-22.870,
132.000,-21.400,
133.000,-20.680,
134.000,-20.700,
135.000,-21.530,
136.000,-23.230,
137.000,-25.590,
138.000,-26.990,
139.000,-27.160,
140.000,-27.320,
141.000,-26.730,
142.000,-26.550,
143.000,-27.780,
144.000,-32.360,
145.000,-39.250,
146.000,-32.580,
147.000,-25.460,
148.000,-22.270,
149.000,-20.860,
150.000,-20.900,
151.000,-22.540,
152.000,-25.700,
153.000,-27.150,
154.000,-26.100,
155.000,-25.370,
156.000,-24.930,
157.000,-25.030,
158.000,-27.380,
159.000,-33.770,
160.000,-33.490,
161.000,-24.790,
162.000,-19.730,
163.000,-17.260,
164.000,-16.280,
165.000,-16.840,
166.000,-19.440,
167.000,-23.380,
168.000,-23.980,
169.000,-20.190,
170.000,-16.020,
171.000,-14.170,
172.000,-14.170,
173.000,-15.440,
174.000,-15.300,
175.000,-11.580,
176.000,-7.170,
177.000,-3.950,
178.000,-1.820,
179.000,-0.550,
PATCUT:,H
POLARI:,V/V
NUPOIN:,360
FSTLST:,-180.000,+179.000
-180.000,0.000,
-179.000,0.000,
-178.000,0.000,
-177.000,0.000,
-176.000,0.000,
-175.000,0.000,
-174.000,0.000,
-173.000,0.000,
-172.000,0.000,
-171.000,0.000,
-170.000,0.000,
-169.000,0.000,
-168.000,0.000,
-167.000,0.000,
-166.000,0.000,
-165.000,0.000,
-164.000,0.000,
-163.000,0.000,
-162.000,0.000,
-161.000,0.000,
-160.000,0.000,
-159.000,0.000,
-158.000,0.000,
-157.000,0.000,
-156.000,0.000,
-155.000,0.000,
-154.000,0.000,
-153.000,0.000,
-152.000,0.000,
-151.000,0.000,
-150.000,0.000,
-149.000,0.000,
-148.000,0.000,
-147.000,0.000,
-146.000,0.000,
-145.000,0.000,
-144.000,0.000,
-143.000,0.000,
-142.000,0.000,
-141.000,0.000,
-140.000,0.000,
-139.000,0.000,
-138.000,0.000,
-137.000,0.000,
-136.000,0.000,
-135.000,0.000,
-134.000,0.000,
-133.000,0.000,
-132.000,0.000,
-131.000,0.000,
-130.000,0.000,
-129.000,0.000,
-128.000,0.000,
-127.000,0.000,
-126.000,0.000,
-125.000,0.000,
-124.000,0.000,
-123.000,0.000,
-122.000,0.000,
-121.000,0.000,
-120.000,0.000,
-119.000,0.000,
-118.000,0.000,
-117.000,0.000,
-116.000,0.000,
-115.000,0.000,
-114.000,0.000,
-113.000,0.000,
-112.000,0.000,
-111.000,0.000,
-110.000,0.000,
-109.000,0.000,
-108.000,0.000,
-107.000,0.000,
-106.000,0.000,
-105.000,0.000,
-104.000,0.000,
-103.000,0.000,
-102.000,0.000,
-101.000,0.000,
-100.000,0.000,
-99.000,0.000,
-98.000,0.000,
-97.000,0.000,
-96.000,0.000,
-95.000,0.000,
-94.000,0.000,
-93.000,0.000,
-92.000,0.000,
-91.000,0.000,
-90.000,0.000,
-89.000,0.000,
-88.000,0.000,
-87.000,0.000,
-86.000,0.000,
-85.000,0.000,
-84.000,0.000,
-83.000,0.000,
-82.000,0.000,
-81.000,0.000,
-80.000,0.000,
-79.000,0.000,
-78.000,0.000,
-77.000,0.000,
-76.000,0.000,
-75.000,0.000,
-74.000,0.000,
-73.000,0.000,
-72.000,0.000,
-71.000,0.000,
-70.000,0.000,
-69.000,0.000,
-68.000,0.000,
-67.000,0.000,
-66.000,0.000,
-65.000,0.000,
-64.000,0.000,
-63.000,0.000,
-62.000,0.000,
-61.000,0.000,
-60.000,0.000,
-59.000,0.000,
-58.000,0.000,
-57.000,0.000,
-56.000,0.000,
-55.000,0.000,
-54.000,0.000,
-53.000,0.000,
-52.000,0.000,
-51.000,0.000,
-50.000,0.000,
-49.000,0.000,
-48.000,0.000,
-47.000,0.000,
-46.000,0.000,
-45.000,0.000,
-44.000,0.000,
-43.000,0.000,
-42.000,0.000,
-41.000,0.000,
-40.000,0.000,
-39.000,0.000,
-38.000,0.000,
-37.000,0.000,
-36.000,0.000,
-35.000,0.000,
-34.000,0.000,
-33.000,0.000,
-32.000,0.000,
-31.000,0.000,
-30.000,0.000,
-29.000,0.000,
-28.000,0.000,
-27.000,0.000,
-26.000,0.000,
-25.000,0.000,
-24.000,0.000,
-23.000,0.000,
-22.000,0.000,
-21.000,0.000,
-20.000,0.000,
-19.000,0.000,
-18.000,0.000,
-17.000,0.000,
-16.000,0.000,
-15.000,0.000,
-14.000,0.000,
-13.000,0.000,
-12.000,0.000,
-11.000,0.000,
-10.000,0.000,
-9.000,0.000,
-8.000,0.000,
-7.000,0.000,
-6.000,0.000,
-5.000,0.000,
-4.000,0.000,
-3.000,0.000,
-2.000,0.000,
-1.000,0.000,
0.000,0.000,
1.000,0.000,
2.000,0.000,
3.000,0.000,
4.000,0.000,
5.000,0.000,
6.000,0.000,
7.000,0.000,
8.000,0.000,
9.000,0.000,
10.000,0.000,
11.000,0.000,
12.000,0.000,
13.000,0.000,
14.000,0.000,
15.000,0.000,
16.000,0.000,
17.000,0.000,
18.000,0.000,
19.000,0.000,
20.000,0.000,
21.000,0.000,
22.000,0.000,
23.000,0.000,
24.000,0.000,
25.000,0.000,
26.000,0.000,
27.000,0.000,
28.000,0.000,
29.000,0.000,
30.000,0.000,
31.000,0.000,
32.000,0.000,
33.000,0.000,
34.000,0.000,
35.000,0.000,
36.000,0.000,
37.000,0.000,
38.000,0.000,
39.000,0.000,
40.000,0.000,
41.000,0.000,
42.000,0.000,
43.000,0.000,
44.000,0.000,
45.000,0.000,
46.000,0.000,
47.000,0.000,
48.000,0.000,
49.000,0.000,
50.000,0.000,
51.000,0.000,
52.000,0.000,
53.000,0.000,
54.000,0.000,
55.000,0.000,
56.000,0.000,
57.000,0.000,
58.000,0.000,
59.000,0.000,
60.000,0.000,
61.000,0.000,
62.000,0.000,
63.000,0.000,
64.000,0.000,
65.000,0.000,
66.000,0.000,
67.000,0.000,
68.000,0.000,
69.000,0.000,
70.000,0.000,
71.000,0.000,
72.000,0.000,
73.000,0.000,
74.000,0.000,
75.000,0.000,
76.000,0.000,
77.000,0.000,
78.000,0.000,
79.000,0.000,
80.000,0.000,
81.000,0.000,
82.000,0.000,
83.000,0.000,
84.000,0.000,
85.000,0.000,
86.000,0.000,
87.000,0.000,
88.000,0.000,
89.000,0.000,
90.000,0.000,
91.000,0.000,
92.000,0.000,
93.000,0.000,
94.000,0.000,
95.000,0.000,
96.000,0.000,
97.000,0.000,
98.000,0.000,
99.000,0.000,
100.000,0.000,
101.000,0.000,
102.000,0.000,
103.000,0.000,
104.000,0.000,
105.000,0.000,
106.000,0.000,
107.000,0.000,
108.000,0.000,
109.000,0.000,
110.000,0.000,
111.000,0.000,
112.000,0.000,
113.000,0.000,
114.000,0.000,
115.000,0.000,
116.000,0.000,
117.000,0.000,
118.000,0.000,
119.000,0.000,
120.000,0.000,
121.000,0.000,
122.000,0.000,
123.000,0.000,
124.000,0.000,
125.000,0.000,
126.000,0.000,
127.000,0.000,
128.000,0.000,
129.000,0.000,
130.000,0.000,
131.000,0.000,
132.000,0.000,
133.000,0.000,
134.000,0.000,
135.000,0.000,
136.000,0.000,
137.000,0.000,
138.000,0.000,
139.000,0.000,
140.000,0.000,
141.000,0.000,
142.000,0.000,
143.000,0.000,
144.000,0.000,
145.000,0.000,
146.000,0.000,
147.000,0.000,
148.000,0.000,
149.000,0.000,
150.000,0.000,
151.000,0.000,
152.000,0.000,
153.000,0.000,
154.000,0.000,
155.000,0.000,
156.000,0.000,
157.000,0.000,
158.000,0.000,
159.000,0.000,
160.000,0.000,
161.000,0.000,
162.000,0.000,
163.000,0.000,
164.000,0.000,
165.000,0.000,
166.000,0.000,
167.000,0.000,
168.000,0.000,
169.000,0.000,
170.000,0.000,
171.000,0.000,
172.000,0.000,
173.000,0.000,
174.000,0.000,
175.000,0.000,
176.000,0.000,
177.000,0.000,
178.000,0.000,
179.000,0.000,
ENDFIL:,EOF
