REVNUM:1.0, 
ANTMAN:,Sinclair Technologies Inc. 
MODNUM:,SC389-HF3LDF(D00)
DTDATA:,20160604
LOWFRQ:,481
HGHFRQ:,481
GUNITS:,DBD/DBR
MDGAIN:,9,0.0
AZWIDT:,7
FRTOBA:,0.1,0
ELTILT:,0,0.5
PATTYP:,typical
NOFREQ:,1
PATFRE:,481
NUMCUT:,2
PATCUT:,V
POLARI:,V/V
NUPOIN:,360
FSTLST:,-180.000,+179.000
-180.000,0.000,
-179.000,-0.080,
-178.000,-0.700,
-177.000,-1.910,
-176.000,-3.800,
-175.000,-6.540,
-174.000,-10.150,
-173.000,-13.470,
-172.000,-14.190,
-171.000,-12.820,
-170.000,-11.750,
-169.000,-11.840,
-168.000,-13.170,
-167.000,-17.280,
-166.000,-25.930,
-165.000,-29.050,
-164.000,-24.170,
-163.000,-21.810,
-162.000,-22.200,
-161.000,-24.950,
-160.000,-29.640,
-159.000,-29.750,
-158.000,-26.320,
-157.000,-24.340,
-156.000,-24.020,
-155.000,-25.340,
-154.000,-27.830,
-153.000,-29.060,
-152.000,-29.890,
-151.000,-28.430,
-150.000,-24.100,
-149.000,-21.620,
-148.000,-20.700,
-147.000,-20.890,
-146.000,-22.010,
-145.000,-24.110,
-144.000,-27.700,
-143.000,-30.380,
-142.000,-30.670,
-141.000,-29.630,
-140.000,-27.040,
-139.000,-25.000,
-138.000,-24.290,
-137.000,-24.660,
-136.000,-26.000,
-135.000,-27.790,
-134.000,-28.260,
-133.000,-26.310,
-132.000,-23.730,
-131.000,-21.760,
-130.000,-20.450,
-129.000,-19.570,
-128.000,-19.240,
-127.000,-19.520,
-126.000,-20.390,
-125.000,-21.900,
-124.000,-24.230,
-123.000,-26.910,
-122.000,-28.080,
-121.000,-28.070,
-120.000,-27.420,
-119.000,-25.900,
-118.000,-24.200,
-117.000,-22.910,
-116.000,-21.950,
-115.000,-21.510,
-114.000,-21.450,
-113.000,-21.750,
-112.000,-22.500,
-111.000,-23.620,
-110.000,-24.840,
-109.000,-26.040,
-108.000,-27.170,
-107.000,-28.570,
-106.000,-29.980,
-105.000,-31.490,
-104.000,-34.300,
-103.000,-35.630,
-102.000,-34.420,
-101.000,-33.530,
-100.000,-32.940,
-99.000,-33.030,
-98.000,-33.270,
-97.000,-33.810,
-96.000,-34.400,
-95.000,-34.670,
-94.000,-34.560,
-93.000,-34.020,
-92.000,-32.950,
-91.000,-32.210,
-90.000,-32.100,
-89.000,-32.350,
-88.000,-33.370,
-87.000,-34.210,
-86.000,-34.710,
-85.000,-34.530,
-84.000,-34.340,
-83.000,-33.480,
-82.000,-33.250,
-81.000,-32.930,
-80.000,-33.080,
-79.000,-33.740,
-78.000,-34.940,
-77.000,-35.530,
-76.000,-33.340,
-75.000,-30.830,
-74.000,-29.580,
-73.000,-28.030,
-72.000,-26.800,
-71.000,-25.650,
-70.000,-24.440,
-69.000,-23.230,
-68.000,-22.190,
-67.000,-21.610,
-66.000,-21.430,
-65.000,-21.610,
-64.000,-22.210,
-63.000,-23.320,
-62.000,-24.710,
-61.000,-26.490,
-60.000,-27.740,
-59.000,-28.120,
-58.000,-27.920,
-57.000,-26.070,
-56.000,-23.380,
-55.000,-21.300,
-54.000,-20.040,
-53.000,-19.350,
-52.000,-19.290,
-51.000,-19.810,
-50.000,-20.850,
-49.000,-22.320,
-48.000,-24.550,
-47.000,-27.150,
-46.000,-28.370,
-45.000,-27.230,
-44.000,-25.450,
-43.000,-24.430,
-42.000,-24.400,
-41.000,-25.520,
-40.000,-27.960,
-39.000,-30.190,
-38.000,-30.700,
-37.000,-29.820,
-36.000,-26.400,
-35.000,-23.260,
-34.000,-21.540,
-33.000,-20.710,
-32.000,-20.870,
-31.000,-22.220,
-30.000,-25.460,
-29.000,-29.450,
-28.000,-29.620,
-27.000,-28.810,
-26.000,-27.030,
-25.000,-24.700,
-24.000,-23.950,
-23.000,-24.820,
-22.000,-27.380,
-21.000,-30.490,
-20.000,-28.180,
-19.000,-23.710,
-18.000,-21.840,
-17.000,-22.190,
-16.000,-25.880,
-15.000,-29.280,
-14.000,-22.990,
-13.000,-15.320,
-12.000,-12.570,
-11.000,-11.670,
-10.000,-11.990,
-9.000,-13.340,
-8.000,-14.300,
-7.000,-12.550,
-6.000,-8.870,
-5.000,-5.520,
-4.000,-3.080,
-3.000,-1.440,
-2.000,-0.430,
-1.000,0.000,
0.000,-0.240,
1.000,-1.040,
2.000,-2.450,
3.000,-4.500,
4.000,-7.260,
5.000,-10.540,
6.000,-13.150,
7.000,-13.650,
8.000,-12.910,
9.000,-12.450,
10.000,-12.970,
11.000,-14.650,
12.000,-17.530,
13.000,-21.200,
14.000,-23.600,
15.000,-23.250,
16.000,-22.640,
17.000,-23.450,
18.000,-24.560,
19.000,-24.380,
20.000,-23.770,
21.000,-23.110,
22.000,-22.320,
23.000,-21.570,
24.000,-21.430,
25.000,-22.180,
26.000,-23.770,
27.000,-25.900,
28.000,-27.580,
29.000,-28.180,
30.000,-27.960,
31.000,-27.520,
32.000,-27.140,
33.000,-27.150,
34.000,-27.780,
35.000,-29.790,
36.000,-33.660,
37.000,-36.080,
38.000,-34.110,
39.000,-31.660,
40.000,-29.300,
41.000,-28.030,
42.000,-27.810,
43.000,-28.120,
44.000,-29.230,
45.000,-30.790,
46.000,-31.570,
47.000,-30.010,
48.000,-28.190,
49.000,-27.050,
50.000,-26.610,
51.000,-27.060,
52.000,-28.300,
53.000,-30.700,
54.000,-34.840,
55.000,-37.120,
56.000,-34.500,
57.000,-31.550,
58.000,-29.000,
59.000,-27.420,
60.000,-26.260,
61.000,-25.820,
62.000,-25.980,
63.000,-26.570,
64.000,-27.540,
65.000,-28.620,
66.000,-29.130,
67.000,-29.510,
68.000,-29.700,
69.000,-29.670,
70.000,-29.960,
71.000,-30.990,
72.000,-32.230,
73.000,-33.270,
74.000,-33.670,
75.000,-33.000,
76.000,-32.350,
77.000,-31.670,
78.000,-30.780,
79.000,-30.350,
80.000,-29.760,
81.000,-29.440,
82.000,-29.030,
83.000,-29.270,
84.000,-29.840,
85.000,-30.770,
86.000,-31.920,
87.000,-32.950,
88.000,-33.890,
89.000,-34.370,
90.000,-34.510,
91.000,-34.100,
92.000,-33.300,
93.000,-32.270,
94.000,-31.160,
95.000,-30.080,
96.000,-29.470,
97.000,-29.010,
98.000,-29.300,
99.000,-29.630,
100.000,-30.160,
101.000,-30.610,
102.000,-31.330,
103.000,-32.190,
104.000,-32.740,
105.000,-33.540,
106.000,-33.490,
107.000,-32.640,
108.000,-31.400,
109.000,-30.250,
110.000,-29.680,
111.000,-29.720,
112.000,-29.600,
113.000,-29.270,
114.000,-28.830,
115.000,-27.950,
116.000,-26.820,
117.000,-26.150,
118.000,-25.820,
119.000,-26.020,
120.000,-27.000,
121.000,-28.380,
122.000,-30.620,
123.000,-33.470,
124.000,-36.540,
125.000,-36.180,
126.000,-31.920,
127.000,-28.910,
128.000,-27.400,
129.000,-26.650,
130.000,-26.820,
131.000,-27.730,
132.000,-29.330,
133.000,-31.260,
134.000,-31.260,
135.000,-29.720,
136.000,-28.420,
137.000,-27.830,
138.000,-27.890,
139.000,-28.720,
140.000,-30.830,
141.000,-33.260,
142.000,-35.700,
143.000,-34.990,
144.000,-30.880,
145.000,-28.270,
146.000,-27.270,
147.000,-27.080,
148.000,-27.390,
149.000,-27.800,
150.000,-28.180,
151.000,-27.870,
152.000,-26.590,
153.000,-24.430,
154.000,-22.650,
155.000,-21.560,
156.000,-21.440,
157.000,-22.030,
158.000,-22.870,
159.000,-23.560,
160.000,-24.180,
161.000,-24.630,
162.000,-23.920,
163.000,-22.750,
164.000,-22.950,
165.000,-23.710,
166.000,-22.290,
167.000,-18.720,
168.000,-15.480,
169.000,-13.400,
170.000,-12.500,
171.000,-12.680,
172.000,-13.440,
173.000,-13.560,
174.000,-11.570,
175.000,-8.330,
176.000,-5.340,
177.000,-3.060,
178.000,-1.440,
179.000,-0.440,
PATCUT:,H
POLARI:,V/V
NUPOIN:,360
FSTLST:,-180.000,+179.000
-180.000,0.000,
-179.000,0.000,
-178.000,0.000,
-177.000,0.000,
-176.000,0.000,
-175.000,0.000,
-174.000,0.000,
-173.000,0.000,
-172.000,0.000,
-171.000,0.000,
-170.000,0.000,
-169.000,0.000,
-168.000,0.000,
-167.000,0.000,
-166.000,0.000,
-165.000,0.000,
-164.000,0.000,
-163.000,0.000,
-162.000,0.000,
-161.000,0.000,
-160.000,0.000,
-159.000,0.000,
-158.000,0.000,
-157.000,0.000,
-156.000,0.000,
-155.000,0.000,
-154.000,0.000,
-153.000,0.000,
-152.000,0.000,
-151.000,0.000,
-150.000,0.000,
-149.000,0.000,
-148.000,0.000,
-147.000,0.000,
-146.000,0.000,
-145.000,0.000,
-144.000,0.000,
-143.000,0.000,
-142.000,0.000,
-141.000,0.000,
-140.000,0.000,
-139.000,0.000,
-138.000,0.000,
-137.000,0.000,
-136.000,0.000,
-135.000,0.000,
-134.000,0.000,
-133.000,0.000,
-132.000,0.000,
-131.000,0.000,
-130.000,0.000,
-129.000,0.000,
-128.000,0.000,
-127.000,0.000,
-126.000,0.000,
-125.000,0.000,
-124.000,0.000,
-123.000,0.000,
-122.000,0.000,
-121.000,0.000,
-120.000,0.000,
-119.000,0.000,
-118.000,0.000,
-117.000,0.000,
-116.000,0.000,
-115.000,0.000,
-114.000,0.000,
-113.000,0.000,
-112.000,0.000,
-111.000,0.000,
-110.000,0.000,
-109.000,0.000,
-108.000,0.000,
-107.000,0.000,
-106.000,0.000,
-105.000,0.000,
-104.000,0.000,
-103.000,0.000,
-102.000,0.000,
-101.000,0.000,
-100.000,0.000,
-99.000,0.000,
-98.000,0.000,
-97.000,0.000,
-96.000,0.000,
-95.000,0.000,
-94.000,0.000,
-93.000,0.000,
-92.000,0.000,
-91.000,0.000,
-90.000,0.000,
-89.000,0.000,
-88.000,0.000,
-87.000,0.000,
-86.000,0.000,
-85.000,0.000,
-84.000,0.000,
-83.000,0.000,
-82.000,0.000,
-81.000,0.000,
-80.000,0.000,
-79.000,0.000,
-78.000,0.000,
-77.000,0.000,
-76.000,0.000,
-75.000,0.000,
-74.000,0.000,
-73.000,0.000,
-72.000,0.000,
-71.000,0.000,
-70.000,0.000,
-69.000,0.000,
-68.000,0.000,
-67.000,0.000,
-66.000,0.000,
-65.000,0.000,
-64.000,0.000,
-63.000,0.000,
-62.000,0.000,
-61.000,0.000,
-60.000,0.000,
-59.000,0.000,
-58.000,0.000,
-57.000,0.000,
-56.000,0.000,
-55.000,0.000,
-54.000,0.000,
-53.000,0.000,
-52.000,0.000,
-51.000,0.000,
-50.000,0.000,
-49.000,0.000,
-48.000,0.000,
-47.000,0.000,
-46.000,0.000,
-45.000,0.000,
-44.000,0.000,
-43.000,0.000,
-42.000,0.000,
-41.000,0.000,
-40.000,0.000,
-39.000,0.000,
-38.000,0.000,
-37.000,0.000,
-36.000,0.000,
-35.000,0.000,
-34.000,0.000,
-33.000,0.000,
-32.000,0.000,
-31.000,0.000,
-30.000,0.000,
-29.000,0.000,
-28.000,0.000,
-27.000,0.000,
-26.000,0.000,
-25.000,0.000,
-24.000,0.000,
-23.000,0.000,
-22.000,0.000,
-21.000,0.000,
-20.000,0.000,
-19.000,0.000,
-18.000,0.000,
-17.000,0.000,
-16.000,0.000,
-15.000,0.000,
-14.000,0.000,
-13.000,0.000,
-12.000,0.000,
-11.000,0.000,
-10.000,0.000,
-9.000,0.000,
-8.000,0.000,
-7.000,0.000,
-6.000,0.000,
-5.000,0.000,
-4.000,0.000,
-3.000,0.000,
-2.000,0.000,
-1.000,0.000,
0.000,0.000,
1.000,0.000,
2.000,0.000,
3.000,0.000,
4.000,0.000,
5.000,0.000,
6.000,0.000,
7.000,0.000,
8.000,0.000,
9.000,0.000,
10.000,0.000,
11.000,0.000,
12.000,0.000,
13.000,0.000,
14.000,0.000,
15.000,0.000,
16.000,0.000,
17.000,0.000,
18.000,0.000,
19.000,0.000,
20.000,0.000,
21.000,0.000,
22.000,0.000,
23.000,0.000,
24.000,0.000,
25.000,0.000,
26.000,0.000,
27.000,0.000,
28.000,0.000,
29.000,0.000,
30.000,0.000,
31.000,0.000,
32.000,0.000,
33.000,0.000,
34.000,0.000,
35.000,0.000,
36.000,0.000,
37.000,0.000,
38.000,0.000,
39.000,0.000,
40.000,0.000,
41.000,0.000,
42.000,0.000,
43.000,0.000,
44.000,0.000,
45.000,0.000,
46.000,0.000,
47.000,0.000,
48.000,0.000,
49.000,0.000,
50.000,0.000,
51.000,0.000,
52.000,0.000,
53.000,0.000,
54.000,0.000,
55.000,0.000,
56.000,0.000,
57.000,0.000,
58.000,0.000,
59.000,0.000,
60.000,0.000,
61.000,0.000,
62.000,0.000,
63.000,0.000,
64.000,0.000,
65.000,0.000,
66.000,0.000,
67.000,0.000,
68.000,0.000,
69.000,0.000,
70.000,0.000,
71.000,0.000,
72.000,0.000,
73.000,0.000,
74.000,0.000,
75.000,0.000,
76.000,0.000,
77.000,0.000,
78.000,0.000,
79.000,0.000,
80.000,0.000,
81.000,0.000,
82.000,0.000,
83.000,0.000,
84.000,0.000,
85.000,0.000,
86.000,0.000,
87.000,0.000,
88.000,0.000,
89.000,0.000,
90.000,0.000,
91.000,0.000,
92.000,0.000,
93.000,0.000,
94.000,0.000,
95.000,0.000,
96.000,0.000,
97.000,0.000,
98.000,0.000,
99.000,0.000,
100.000,0.000,
101.000,0.000,
102.000,0.000,
103.000,0.000,
104.000,0.000,
105.000,0.000,
106.000,0.000,
107.000,0.000,
108.000,0.000,
109.000,0.000,
110.000,0.000,
111.000,0.000,
112.000,0.000,
113.000,0.000,
114.000,0.000,
115.000,0.000,
116.000,0.000,
117.000,0.000,
118.000,0.000,
119.000,0.000,
120.000,0.000,
121.000,0.000,
122.000,0.000,
123.000,0.000,
124.000,0.000,
125.000,0.000,
126.000,0.000,
127.000,0.000,
128.000,0.000,
129.000,0.000,
130.000,0.000,
131.000,0.000,
132.000,0.000,
133.000,0.000,
134.000,0.000,
135.000,0.000,
136.000,0.000,
137.000,0.000,
138.000,0.000,
139.000,0.000,
140.000,0.000,
141.000,0.000,
142.000,0.000,
143.000,0.000,
144.000,0.000,
145.000,0.000,
146.000,0.000,
147.000,0.000,
148.000,0.000,
149.000,0.000,
150.000,0.000,
151.000,0.000,
152.000,0.000,
153.000,0.000,
154.000,0.000,
155.000,0.000,
156.000,0.000,
157.000,0.000,
158.000,0.000,
159.000,0.000,
160.000,0.000,
161.000,0.000,
162.000,0.000,
163.000,0.000,
164.000,0.000,
165.000,0.000,
166.000,0.000,
167.000,0.000,
168.000,0.000,
169.000,0.000,
170.000,0.000,
171.000,0.000,
172.000,0.000,
173.000,0.000,
174.000,0.000,
175.000,0.000,
176.000,0.000,
177.000,0.000,
178.000,0.000,
179.000,0.000,
ENDFIL:,EOF
