REVNUM:1.0, 
ANTMAN:,Sinclair Technologies Inc. 
MODNUM:,SC412-HF2LDF(D00-E5608)
DTDATA:,20080412
LOWFRQ:,807.5
HGHFRQ:,807.5
GUNITS:,DBD/DBR
MDGAIN:,11.5,0.0
AZWIDT:,5
FRTOBA:,0.4,0
ELTILT:,0,0.5
PATTYP:,typical
NOFREQ:,1
PATFRE:,807.5
NUMCUT:,2
PATCUT:,V
POLARI:,V/V
NUPOIN:,360
FSTLST:,-180.000,+179.000
-180.000,-0.070,
-179.000,-1.190,
-178.000,-3.860,
-177.000,-8.040,
-176.000,-10.960,
-175.000,-10.460,
-174.000,-9.720,
-173.000,-10.480,
-172.000,-11.230,
-171.000,-10.900,
-170.000,-10.880,
-169.000,-12.810,
-168.000,-14.600,
-167.000,-14.910,
-166.000,-14.400,
-165.000,-15.180,
-164.000,-18.520,
-163.000,-21.180,
-162.000,-20.340,
-161.000,-19.200,
-160.000,-19.720,
-159.000,-20.760,
-158.000,-22.700,
-157.000,-21.010,
-156.000,-19.440,
-155.000,-22.010,
-154.000,-24.050,
-153.000,-22.630,
-152.000,-20.580,
-151.000,-22.170,
-150.000,-29.060,
-149.000,-29.880,
-148.000,-23.210,
-147.000,-21.490,
-146.000,-24.280,
-145.000,-25.520,
-144.000,-22.770,
-143.000,-20.180,
-142.000,-18.870,
-141.000,-18.620,
-140.000,-19.310,
-139.000,-21.680,
-138.000,-25.470,
-137.000,-28.730,
-136.000,-28.990,
-135.000,-26.290,
-134.000,-26.030,
-133.000,-26.100,
-132.000,-26.510,
-131.000,-29.110,
-130.000,-30.880,
-129.000,-26.480,
-128.000,-22.370,
-127.000,-20.430,
-126.000,-19.500,
-125.000,-20.260,
-124.000,-21.930,
-123.000,-24.380,
-122.000,-26.950,
-121.000,-24.670,
-120.000,-20.880,
-119.000,-19.250,
-118.000,-18.210,
-117.000,-18.660,
-116.000,-20.560,
-115.000,-21.820,
-114.000,-22.470,
-113.000,-22.590,
-112.000,-21.730,
-111.000,-20.860,
-110.000,-19.860,
-109.000,-19.470,
-108.000,-20.960,
-107.000,-22.070,
-106.000,-23.060,
-105.000,-25.220,
-104.000,-27.260,
-103.000,-30.620,
-102.000,-31.040,
-101.000,-29.470,
-100.000,-32.370,
-99.000,-33.340,
-98.000,-34.700,
-97.000,-41.420,
-96.000,-39.090,
-95.000,-34.710,
-94.000,-34.280,
-93.000,-33.690,
-92.000,-37.060,
-91.000,-37.990,
-90.000,-33.900,
-89.000,-37.990,
-88.000,-37.060,
-87.000,-33.690,
-86.000,-34.280,
-85.000,-34.710,
-84.000,-39.090,
-83.000,-41.420,
-82.000,-34.700,
-81.000,-33.340,
-80.000,-32.370,
-79.000,-29.470,
-78.000,-31.040,
-77.000,-30.620,
-76.000,-27.260,
-75.000,-25.220,
-74.000,-23.060,
-73.000,-22.070,
-72.000,-20.960,
-71.000,-19.470,
-70.000,-19.860,
-69.000,-20.860,
-68.000,-21.730,
-67.000,-22.590,
-66.000,-22.470,
-65.000,-21.820,
-64.000,-20.560,
-63.000,-18.660,
-62.000,-18.210,
-61.000,-19.250,
-60.000,-20.880,
-59.000,-24.670,
-58.000,-26.950,
-57.000,-24.380,
-56.000,-21.930,
-55.000,-20.260,
-54.000,-19.500,
-53.000,-20.430,
-52.000,-22.370,
-51.000,-26.480,
-50.000,-30.880,
-49.000,-29.110,
-48.000,-26.510,
-47.000,-26.100,
-46.000,-26.030,
-45.000,-26.290,
-44.000,-28.990,
-43.000,-28.730,
-42.000,-25.470,
-41.000,-21.680,
-40.000,-19.310,
-39.000,-18.620,
-38.000,-18.870,
-37.000,-20.180,
-36.000,-22.770,
-35.000,-25.520,
-34.000,-24.280,
-33.000,-21.490,
-32.000,-23.210,
-31.000,-29.880,
-30.000,-29.060,
-29.000,-22.170,
-28.000,-20.580,
-27.000,-22.630,
-26.000,-24.050,
-25.000,-22.010,
-24.000,-19.440,
-23.000,-21.010,
-22.000,-22.700,
-21.000,-20.760,
-20.000,-19.720,
-19.000,-19.200,
-18.000,-20.340,
-17.000,-21.180,
-16.000,-18.520,
-15.000,-15.180,
-14.000,-14.400,
-13.000,-14.910,
-12.000,-14.600,
-11.000,-12.810,
-10.000,-10.880,
-9.000,-10.900,
-8.000,-11.230,
-7.000,-10.480,
-6.000,-9.720,
-5.000,-10.460,
-4.000,-10.960,
-3.000,-8.040,
-2.000,-3.860,
-1.000,-1.190,
0.000,-0.070,
1.000,-0.330,
2.000,-1.990,
3.000,-4.730,
4.000,-8.690,
5.000,-12.450,
6.000,-12.550,
7.000,-9.830,
8.000,-8.490,
9.000,-10.510,
10.000,-16.670,
11.000,-21.880,
12.000,-18.990,
13.000,-16.500,
14.000,-19.310,
15.000,-23.190,
16.000,-24.730,
17.000,-24.110,
18.000,-27.180,
19.000,-26.760,
20.000,-21.710,
21.000,-20.250,
22.000,-23.190,
23.000,-29.190,
24.000,-25.790,
25.000,-18.140,
26.000,-16.800,
27.000,-17.830,
28.000,-20.950,
29.000,-24.370,
30.000,-23.860,
31.000,-23.510,
32.000,-27.230,
33.000,-31.150,
34.000,-28.520,
35.000,-23.830,
36.000,-20.670,
37.000,-19.330,
38.000,-18.520,
39.000,-19.050,
40.000,-21.150,
41.000,-22.910,
42.000,-23.760,
43.000,-24.300,
44.000,-25.580,
45.000,-32.900,
46.000,-36.680,
47.000,-29.300,
48.000,-25.650,
49.000,-24.490,
50.000,-25.420,
51.000,-27.260,
52.000,-29.010,
53.000,-31.430,
54.000,-29.480,
55.000,-25.520,
56.000,-25.240,
57.000,-25.920,
58.000,-24.300,
59.000,-22.860,
60.000,-22.570,
61.000,-23.170,
62.000,-23.600,
63.000,-23.170,
64.000,-22.420,
65.000,-23.440,
66.000,-24.990,
67.000,-26.430,
68.000,-30.290,
69.000,-33.230,
70.000,-32.340,
71.000,-30.160,
72.000,-30.690,
73.000,-28.300,
74.000,-27.040,
75.000,-27.810,
76.000,-27.850,
77.000,-27.370,
78.000,-26.850,
79.000,-27.620,
80.000,-30.090,
81.000,-32.180,
82.000,-31.740,
83.000,-30.070,
84.000,-31.000,
85.000,-33.080,
86.000,-36.860,
87.000,-36.890,
88.000,-35.170,
89.000,-35.590,
90.000,-35.190,
91.000,-35.590,
92.000,-35.170,
93.000,-36.890,
94.000,-36.860,
95.000,-33.080,
96.000,-31.000,
97.000,-30.070,
98.000,-31.740,
99.000,-32.180,
100.000,-30.090,
101.000,-27.620,
102.000,-26.850,
103.000,-27.370,
104.000,-27.850,
105.000,-27.810,
106.000,-27.040,
107.000,-28.300,
108.000,-30.690,
109.000,-30.160,
110.000,-32.340,
111.000,-33.230,
112.000,-30.290,
113.000,-26.430,
114.000,-24.990,
115.000,-23.440,
116.000,-22.420,
117.000,-23.170,
118.000,-23.600,
119.000,-23.170,
120.000,-22.570,
121.000,-22.860,
122.000,-24.300,
123.000,-25.920,
124.000,-25.240,
125.000,-25.520,
126.000,-29.480,
127.000,-31.430,
128.000,-29.010,
129.000,-27.260,
130.000,-25.420,
131.000,-24.490,
132.000,-25.650,
133.000,-29.300,
134.000,-36.680,
135.000,-32.900,
136.000,-25.580,
137.000,-24.300,
138.000,-23.760,
139.000,-22.910,
140.000,-21.150,
141.000,-19.050,
142.000,-18.520,
143.000,-19.330,
144.000,-20.670,
145.000,-23.830,
146.000,-28.520,
147.000,-31.150,
148.000,-27.230,
149.000,-23.510,
150.000,-23.860,
151.000,-24.370,
152.000,-20.960,
153.000,-17.830,
154.000,-16.800,
155.000,-18.140,
156.000,-25.790,
157.000,-29.190,
158.000,-23.190,
159.000,-20.250,
160.000,-21.710,
161.000,-26.760,
162.000,-27.180,
163.000,-24.110,
164.000,-24.730,
165.000,-23.190,
166.000,-19.310,
167.000,-16.500,
168.000,-18.990,
169.000,-21.880,
170.000,-16.670,
171.000,-10.510,
172.000,-8.490,
173.000,-9.830,
174.000,-12.550,
175.000,-12.450,
176.000,-8.690,
177.000,-4.730,
178.000,-1.990,
179.000,-0.330,
PATCUT:,H
POLARI:,V/V
NUPOIN:,360
FSTLST:,-180.000,+179.000
-180.000,0.000,
-179.000,0.000,
-178.000,0.000,
-177.000,0.000,
-176.000,0.000,
-175.000,0.000,
-174.000,0.000,
-173.000,0.000,
-172.000,0.000,
-171.000,0.000,
-170.000,0.000,
-169.000,0.000,
-168.000,0.000,
-167.000,0.000,
-166.000,0.000,
-165.000,0.000,
-164.000,0.000,
-163.000,0.000,
-162.000,0.000,
-161.000,0.000,
-160.000,0.000,
-159.000,0.000,
-158.000,0.000,
-157.000,0.000,
-156.000,0.000,
-155.000,0.000,
-154.000,0.000,
-153.000,0.000,
-152.000,0.000,
-151.000,0.000,
-150.000,0.000,
-149.000,0.000,
-148.000,0.000,
-147.000,0.000,
-146.000,0.000,
-145.000,0.000,
-144.000,0.000,
-143.000,0.000,
-142.000,0.000,
-141.000,0.000,
-140.000,0.000,
-139.000,0.000,
-138.000,0.000,
-137.000,0.000,
-136.000,0.000,
-135.000,0.000,
-134.000,0.000,
-133.000,0.000,
-132.000,0.000,
-131.000,0.000,
-130.000,0.000,
-129.000,0.000,
-128.000,0.000,
-127.000,0.000,
-126.000,0.000,
-125.000,0.000,
-124.000,0.000,
-123.000,0.000,
-122.000,0.000,
-121.000,0.000,
-120.000,0.000,
-119.000,0.000,
-118.000,0.000,
-117.000,0.000,
-116.000,0.000,
-115.000,0.000,
-114.000,0.000,
-113.000,0.000,
-112.000,0.000,
-111.000,0.000,
-110.000,0.000,
-109.000,0.000,
-108.000,0.000,
-107.000,0.000,
-106.000,0.000,
-105.000,0.000,
-104.000,0.000,
-103.000,0.000,
-102.000,0.000,
-101.000,0.000,
-100.000,0.000,
-99.000,0.000,
-98.000,0.000,
-97.000,0.000,
-96.000,0.000,
-95.000,0.000,
-94.000,0.000,
-93.000,0.000,
-92.000,0.000,
-91.000,0.000,
-90.000,0.000,
-89.000,0.000,
-88.000,0.000,
-87.000,0.000,
-86.000,0.000,
-85.000,0.000,
-84.000,0.000,
-83.000,0.000,
-82.000,0.000,
-81.000,0.000,
-80.000,0.000,
-79.000,0.000,
-78.000,0.000,
-77.000,0.000,
-76.000,0.000,
-75.000,0.000,
-74.000,0.000,
-73.000,0.000,
-72.000,0.000,
-71.000,0.000,
-70.000,0.000,
-69.000,0.000,
-68.000,0.000,
-67.000,0.000,
-66.000,0.000,
-65.000,0.000,
-64.000,0.000,
-63.000,0.000,
-62.000,0.000,
-61.000,0.000,
-60.000,0.000,
-59.000,0.000,
-58.000,0.000,
-57.000,0.000,
-56.000,0.000,
-55.000,0.000,
-54.000,0.000,
-53.000,0.000,
-52.000,0.000,
-51.000,0.000,
-50.000,0.000,
-49.000,0.000,
-48.000,0.000,
-47.000,0.000,
-46.000,0.000,
-45.000,0.000,
-44.000,0.000,
-43.000,0.000,
-42.000,0.000,
-41.000,0.000,
-40.000,0.000,
-39.000,0.000,
-38.000,0.000,
-37.000,0.000,
-36.000,0.000,
-35.000,0.000,
-34.000,0.000,
-33.000,0.000,
-32.000,0.000,
-31.000,0.000,
-30.000,0.000,
-29.000,0.000,
-28.000,0.000,
-27.000,0.000,
-26.000,0.000,
-25.000,0.000,
-24.000,0.000,
-23.000,0.000,
-22.000,0.000,
-21.000,0.000,
-20.000,0.000,
-19.000,0.000,
-18.000,0.000,
-17.000,0.000,
-16.000,0.000,
-15.000,0.000,
-14.000,0.000,
-13.000,0.000,
-12.000,0.000,
-11.000,0.000,
-10.000,0.000,
-9.000,0.000,
-8.000,0.000,
-7.000,0.000,
-6.000,0.000,
-5.000,0.000,
-4.000,0.000,
-3.000,0.000,
-2.000,0.000,
-1.000,0.000,
0.000,0.000,
1.000,0.000,
2.000,0.000,
3.000,0.000,
4.000,0.000,
5.000,0.000,
6.000,0.000,
7.000,0.000,
8.000,0.000,
9.000,0.000,
10.000,0.000,
11.000,0.000,
12.000,0.000,
13.000,0.000,
14.000,0.000,
15.000,0.000,
16.000,0.000,
17.000,0.000,
18.000,0.000,
19.000,0.000,
20.000,0.000,
21.000,0.000,
22.000,0.000,
23.000,0.000,
24.000,0.000,
25.000,0.000,
26.000,0.000,
27.000,0.000,
28.000,0.000,
29.000,0.000,
30.000,0.000,
31.000,0.000,
32.000,0.000,
33.000,0.000,
34.000,0.000,
35.000,0.000,
36.000,0.000,
37.000,0.000,
38.000,0.000,
39.000,0.000,
40.000,0.000,
41.000,0.000,
42.000,0.000,
43.000,0.000,
44.000,0.000,
45.000,0.000,
46.000,0.000,
47.000,0.000,
48.000,0.000,
49.000,0.000,
50.000,0.000,
51.000,0.000,
52.000,0.000,
53.000,0.000,
54.000,0.000,
55.000,0.000,
56.000,0.000,
57.000,0.000,
58.000,0.000,
59.000,0.000,
60.000,0.000,
61.000,0.000,
62.000,0.000,
63.000,0.000,
64.000,0.000,
65.000,0.000,
66.000,0.000,
67.000,0.000,
68.000,0.000,
69.000,0.000,
70.000,0.000,
71.000,0.000,
72.000,0.000,
73.000,0.000,
74.000,0.000,
75.000,0.000,
76.000,0.000,
77.000,0.000,
78.000,0.000,
79.000,0.000,
80.000,0.000,
81.000,0.000,
82.000,0.000,
83.000,0.000,
84.000,0.000,
85.000,0.000,
86.000,0.000,
87.000,0.000,
88.000,0.000,
89.000,0.000,
90.000,0.000,
91.000,0.000,
92.000,0.000,
93.000,0.000,
94.000,0.000,
95.000,0.000,
96.000,0.000,
97.000,0.000,
98.000,0.000,
99.000,0.000,
100.000,0.000,
101.000,0.000,
102.000,0.000,
103.000,0.000,
104.000,0.000,
105.000,0.000,
106.000,0.000,
107.000,0.000,
108.000,0.000,
109.000,0.000,
110.000,0.000,
111.000,0.000,
112.000,0.000,
113.000,0.000,
114.000,0.000,
115.000,0.000,
116.000,0.000,
117.000,0.000,
118.000,0.000,
119.000,0.000,
120.000,0.000,
121.000,0.000,
122.000,0.000,
123.000,0.000,
124.000,0.000,
125.000,0.000,
126.000,0.000,
127.000,0.000,
128.000,0.000,
129.000,0.000,
130.000,0.000,
131.000,0.000,
132.000,0.000,
133.000,0.000,
134.000,0.000,
135.000,0.000,
136.000,0.000,
137.000,0.000,
138.000,0.000,
139.000,0.000,
140.000,0.000,
141.000,0.000,
142.000,0.000,
143.000,0.000,
144.000,0.000,
145.000,0.000,
146.000,0.000,
147.000,0.000,
148.000,0.000,
149.000,0.000,
150.000,0.000,
151.000,0.000,
152.000,0.000,
153.000,0.000,
154.000,0.000,
155.000,0.000,
156.000,0.000,
157.000,0.000,
158.000,0.000,
159.000,0.000,
160.000,0.000,
161.000,0.000,
162.000,0.000,
163.000,0.000,
164.000,0.000,
165.000,0.000,
166.000,0.000,
167.000,0.000,
168.000,0.000,
169.000,0.000,
170.000,0.000,
171.000,0.000,
172.000,0.000,
173.000,0.000,
174.000,0.000,
175.000,0.000,
176.000,0.000,
177.000,0.000,
178.000,0.000,
179.000,0.000,
ENDFIL:,EOF
