REVNUM:1.0, 
ANTMAN:,Sinclair Technologies Inc. 
MODNUM:,SP304V-SWBP120LDF(D00)
DTDATA:,20091301
LOWFRQ:,512
HGHFRQ:,512
GUNITS:,DBD/DBR
MDGAIN:,9.5,0.0
AZWIDT:,16.5
FRTOBA:,17.9,0
ELTILT:,0,0.5
PATTYP:,typical
NOFREQ:,1
PATFRE:,512
NUMCUT:,2
PATCUT:,V
POLARI:,V/V
NUPOIN:,360
FSTLST:,-180.000,+179.000
-180.000,-17.830
-179.000,-18.000
-178.000,-18.220
-177.000,-18.420
-176.000,-18.760
-175.000,-19.220
-174.000,-19.670
-173.000,-20.200
-172.000,-20.740
-171.000,-21.350
-170.000,-22.210
-169.000,-23.310
-168.000,-24.250
-167.000,-24.990
-166.000,-26.050
-165.000,-27.100
-164.000,-28.030
-163.000,-29.400
-162.000,-30.830
-161.000,-31.700
-160.000,-32.270
-159.000,-33.390
-158.000,-35.010
-157.000,-36.460
-156.000,-37.020
-155.000,-36.510
-154.000,-35.360
-153.000,-33.670
-152.000,-32.440
-151.000,-31.750
-150.000,-31.150
-149.000,-30.650
-148.000,-30.080
-147.000,-29.850
-146.000,-29.900
-145.000,-29.890
-144.000,-30.080
-143.000,-30.160
-142.000,-30.020
-141.000,-30.480
-140.000,-31.390
-139.000,-31.960
-138.000,-32.440
-137.000,-32.770
-136.000,-32.890
-135.000,-33.070
-134.000,-33.260
-133.000,-33.260
-132.000,-32.870
-131.000,-32.660
-130.000,-32.660
-129.000,-32.890
-128.000,-33.050
-127.000,-32.500
-126.000,-31.820
-125.000,-31.650
-124.000,-31.690
-123.000,-31.560
-122.000,-31.250
-121.000,-30.980
-120.000,-31.150
-119.000,-31.400
-118.000,-31.360
-117.000,-31.280
-116.000,-31.120
-115.000,-30.950
-114.000,-31.150
-113.000,-31.460
-112.000,-31.620
-111.000,-31.780
-110.000,-31.870
-109.000,-31.910
-108.000,-32.100
-107.000,-32.510
-106.000,-33.000
-105.000,-33.340
-104.000,-33.940
-103.000,-34.490
-102.000,-34.920
-101.000,-35.800
-100.000,-38.010
-99.000,-39.880
-98.000,-39.910
-97.000,-39.830
-96.000,-41.260
-95.000,-42.530
-94.000,-41.140
-93.000,-38.860
-92.000,-36.620
-91.000,-34.900
-90.000,-33.450
-89.000,-32.010
-88.000,-31.120
-87.000,-30.300
-86.000,-29.540
-85.000,-28.540
-84.000,-27.630
-83.000,-27.060
-82.000,-26.330
-81.000,-25.410
-80.000,-24.760
-79.000,-24.510
-78.000,-24.340
-77.000,-24.050
-76.000,-23.640
-75.000,-23.310
-74.000,-23.340
-73.000,-23.510
-72.000,-23.510
-71.000,-23.530
-70.000,-23.550
-69.000,-23.710
-68.000,-24.200
-67.000,-24.770
-66.000,-25.100
-65.000,-25.270
-64.000,-25.430
-63.000,-25.510
-62.000,-25.390
-61.000,-24.840
-60.000,-24.010
-59.000,-23.210
-58.000,-22.460
-57.000,-21.730
-56.000,-20.960
-55.000,-20.160
-54.000,-19.450
-53.000,-19.000
-52.000,-18.550
-51.000,-17.940
-50.000,-17.580
-49.000,-17.450
-48.000,-17.340
-47.000,-17.240
-46.000,-17.260
-45.000,-17.480
-44.000,-17.900
-43.000,-18.530
-42.000,-19.360
-41.000,-20.370
-40.000,-21.800
-39.000,-23.990
-38.000,-27.160
-37.000,-30.680
-36.000,-31.750
-35.000,-29.140
-34.000,-25.300
-33.000,-22.050
-32.000,-19.760
-31.000,-18.080
-30.000,-16.780
-29.000,-15.810
-28.000,-15.060
-27.000,-14.580
-26.000,-14.340
-25.000,-14.320
-24.000,-14.590
-23.000,-15.180
-22.000,-16.170
-21.000,-17.730
-20.000,-20.090
-19.000,-23.560
-18.000,-26.220
-17.000,-24.540
-16.000,-19.870
-15.000,-15.760
-14.000,-12.740
-13.000,-10.370
-12.000,-8.430
-11.000,-6.810
-10.000,-5.470
-9.000,-4.340
-8.000,-3.360
-7.000,-2.520
-6.000,-1.820
-5.000,-1.250
-4.000,-0.790
-3.000,-0.440
-2.000,-0.190
-1.000,-0.040
0.000,0.000
1.000,-0.050
2.000,-0.190
3.000,-0.430
4.000,-0.780
5.000,-1.240
6.000,-1.810
7.000,-2.500
8.000,-3.310
9.000,-4.270
10.000,-5.410
11.000,-6.760
12.000,-8.380
13.000,-10.320
14.000,-12.680
15.000,-15.760
16.000,-19.650
17.000,-23.170
18.000,-23.730
19.000,-21.150
20.000,-18.200
21.000,-16.170
22.000,-14.850
23.000,-14.040
24.000,-13.570
25.000,-13.360
26.000,-13.400
27.000,-13.660
28.000,-14.040
29.000,-14.670
30.000,-15.610
31.000,-16.810
32.000,-18.330
33.000,-20.200
34.000,-22.680
35.000,-25.860
36.000,-28.830
37.000,-29.950
38.000,-28.310
39.000,-25.310
40.000,-22.900
41.000,-21.300
42.000,-20.060
43.000,-19.220
44.000,-18.670
45.000,-18.300
46.000,-18.110
47.000,-18.090
48.000,-18.180
49.000,-18.400
50.000,-18.720
51.000,-19.130
52.000,-19.720
53.000,-20.400
54.000,-21.110
55.000,-22.060
56.000,-23.370
57.000,-24.550
58.000,-25.520
59.000,-26.790
60.000,-28.320
61.000,-29.460
62.000,-30.480
63.000,-31.580
64.000,-31.830
65.000,-31.320
66.000,-30.590
67.000,-29.740
68.000,-28.740
69.000,-27.910
70.000,-27.340
71.000,-26.980
72.000,-26.660
73.000,-26.150
74.000,-25.660
75.000,-25.350
76.000,-25.310
77.000,-25.350
78.000,-25.390
79.000,-25.740
80.000,-26.300
81.000,-26.730
82.000,-27.030
83.000,-27.350
84.000,-28.090
85.000,-28.930
86.000,-29.410
87.000,-30.140
88.000,-31.580
89.000,-33.060
90.000,-34.200
91.000,-34.780
92.000,-35.610
93.000,-37.170
94.000,-39.050
95.000,-41.990
96.000,-44.300
97.000,-44.270
98.000,-43.720
99.000,-43.500
100.000,-42.050
101.000,-40.500
102.000,-41.020
103.000,-41.630
104.000,-40.250
105.000,-38.640
106.000,-38.370
107.000,-38.610
108.000,-38.770
109.000,-38.840
110.000,-38.030
111.000,-37.330
112.000,-37.860
113.000,-38.310
114.000,-38.480
115.000,-38.370
116.000,-37.530
117.000,-36.660
118.000,-36.670
119.000,-36.520
120.000,-35.590
121.000,-34.560
122.000,-33.900
123.000,-33.470
124.000,-32.890
125.000,-32.290
126.000,-31.840
127.000,-31.690
128.000,-31.550
129.000,-30.850
130.000,-30.170
131.000,-29.860
132.000,-29.500
133.000,-29.070
134.000,-28.830
135.000,-28.710
136.000,-28.390
137.000,-27.950
138.000,-27.320
139.000,-26.820
140.000,-26.770
141.000,-26.620
142.000,-26.200
143.000,-25.890
144.000,-25.690
145.000,-25.520
146.000,-25.390
147.000,-25.230
148.000,-25.260
149.000,-25.560
150.000,-25.670
151.000,-25.780
152.000,-26.320
153.000,-27.140
154.000,-27.900
155.000,-28.720
156.000,-29.800
157.000,-30.940
158.000,-32.410
159.000,-33.820
160.000,-34.950
161.000,-35.410
162.000,-34.100
163.000,-31.790
164.000,-29.760
165.000,-28.050
166.000,-26.520
167.000,-25.110
168.000,-23.870
169.000,-22.810
170.000,-21.830
171.000,-20.960
172.000,-20.300
173.000,-19.710
174.000,-19.130
175.000,-18.670
176.000,-18.300
177.000,-18.050
178.000,-17.910
179.000,-17.810
PATCUT:,H
POLARI:,V/V
NUPOIN:,360
FSTLST:,-180.000,+179.000
-180.000,-17.660
-179.000,-17.520
-178.000,-17.290
-177.000,-17.350
-176.000,-17.670
-175.000,-17.950
-174.000,-17.980
-173.000,-18.050
-172.000,-18.210
-171.000,-18.250
-170.000,-18.560
-169.000,-18.960
-168.000,-19.030
-167.000,-19.180
-166.000,-19.400
-165.000,-19.370
-164.000,-19.650
-163.000,-20.420
-162.000,-20.600
-161.000,-20.660
-160.000,-21.330
-159.000,-21.910
-158.000,-22.290
-157.000,-22.710
-156.000,-23.110
-155.000,-23.540
-154.000,-23.580
-153.000,-23.590
-152.000,-23.940
-151.000,-24.180
-150.000,-24.200
-149.000,-23.820
-148.000,-23.520
-147.000,-23.390
-146.000,-22.920
-145.000,-22.390
-144.000,-21.910
-143.000,-21.460
-142.000,-20.800
-141.000,-20.260
-140.000,-19.800
-139.000,-18.930
-138.000,-18.070
-137.000,-17.590
-136.000,-17.270
-135.000,-16.890
-134.000,-16.520
-133.000,-16.070
-132.000,-15.770
-131.000,-15.520
-130.000,-15.020
-129.000,-14.550
-128.000,-14.210
-127.000,-13.870
-126.000,-13.490
-125.000,-13.220
-124.000,-13.040
-123.000,-12.820
-122.000,-12.590
-121.000,-12.340
-120.000,-11.990
-119.000,-11.660
-118.000,-11.430
-117.000,-11.170
-116.000,-10.930
-115.000,-10.760
-114.000,-10.550
-113.000,-10.330
-112.000,-10.120
-111.000,-9.890
-110.000,-9.720
-109.000,-9.650
-108.000,-9.520
-107.000,-9.280
-106.000,-9.130
-105.000,-9.010
-104.000,-8.810
-103.000,-8.670
-102.000,-8.560
-101.000,-8.380
-100.000,-8.190
-99.000,-8.030
-98.000,-7.880
-97.000,-7.730
-96.000,-7.570
-95.000,-7.420
-94.000,-7.260
-93.000,-7.090
-92.000,-6.980
-91.000,-6.850
-90.000,-6.690
-89.000,-6.550
-88.000,-6.440
-87.000,-6.320
-86.000,-6.150
-85.000,-5.950
-84.000,-5.770
-83.000,-5.600
-82.000,-5.440
-81.000,-5.320
-80.000,-5.190
-79.000,-5.100
-78.000,-5.030
-77.000,-4.890
-76.000,-4.720
-75.000,-4.530
-74.000,-4.320
-73.000,-4.150
-72.000,-4.050
-71.000,-3.980
-70.000,-3.880
-69.000,-3.780
-68.000,-3.660
-67.000,-3.560
-66.000,-3.470
-65.000,-3.340
-64.000,-3.180
-63.000,-3.050
-62.000,-2.960
-61.000,-2.870
-60.000,-2.770
-59.000,-2.660
-58.000,-2.540
-57.000,-2.440
-56.000,-2.340
-55.000,-2.270
-54.000,-2.190
-53.000,-2.070
-52.000,-1.940
-51.000,-1.860
-50.000,-1.790
-49.000,-1.730
-48.000,-1.700
-47.000,-1.630
-46.000,-1.560
-45.000,-1.500
-44.000,-1.420
-43.000,-1.340
-42.000,-1.290
-41.000,-1.230
-40.000,-1.150
-39.000,-1.090
-38.000,-1.040
-37.000,-0.990
-36.000,-0.930
-35.000,-0.870
-34.000,-0.830
-33.000,-0.780
-32.000,-0.710
-31.000,-0.670
-30.000,-0.630
-29.000,-0.590
-28.000,-0.570
-27.000,-0.510
-26.000,-0.440
-25.000,-0.430
-24.000,-0.450
-23.000,-0.430
-22.000,-0.410
-21.000,-0.390
-20.000,-0.360
-19.000,-0.320
-18.000,-0.250
-17.000,-0.190
-16.000,-0.160
-15.000,-0.150
-14.000,-0.140
-13.000,-0.130
-12.000,-0.090
-11.000,-0.080
-10.000,-0.130
-9.000,-0.170
-8.000,-0.150
-7.000,-0.100
-6.000,-0.050
-5.000,-0.030
-4.000,-0.020
-3.000,-0.010
-2.000,-0.010
-1.000,-0.010
0.000,0.000
1.000,-0.010
2.000,-0.010
3.000,-0.010
4.000,-0.030
5.000,-0.050
6.000,-0.050
7.000,-0.040
8.000,-0.060
9.000,-0.100
10.000,-0.140
11.000,-0.160
12.000,-0.180
13.000,-0.240
14.000,-0.290
15.000,-0.330
16.000,-0.370
17.000,-0.380
18.000,-0.390
19.000,-0.410
20.000,-0.430
21.000,-0.450
22.000,-0.500
23.000,-0.560
24.000,-0.570
25.000,-0.600
26.000,-0.670
27.000,-0.690
28.000,-0.690
29.000,-0.770
30.000,-0.840
31.000,-0.830
32.000,-0.840
33.000,-0.910
34.000,-1.000
35.000,-1.050
36.000,-1.070
37.000,-1.120
38.000,-1.160
39.000,-1.200
40.000,-1.260
41.000,-1.340
42.000,-1.420
43.000,-1.510
44.000,-1.570
45.000,-1.590
46.000,-1.620
47.000,-1.670
48.000,-1.740
49.000,-1.830
50.000,-1.910
51.000,-1.990
52.000,-2.070
53.000,-2.130
54.000,-2.230
55.000,-2.370
56.000,-2.460
57.000,-2.520
58.000,-2.620
59.000,-2.740
60.000,-2.800
61.000,-2.840
62.000,-2.950
63.000,-3.100
64.000,-3.230
65.000,-3.370
66.000,-3.470
67.000,-3.540
68.000,-3.640
69.000,-3.740
70.000,-3.850
71.000,-3.960
72.000,-4.080
73.000,-4.200
74.000,-4.340
75.000,-4.460
76.000,-4.580
77.000,-4.730
78.000,-4.900
79.000,-5.100
80.000,-5.250
81.000,-5.340
82.000,-5.490
83.000,-5.660
84.000,-5.750
85.000,-5.880
86.000,-6.110
87.000,-6.300
88.000,-6.480
89.000,-6.610
90.000,-6.690
91.000,-6.870
92.000,-7.130
93.000,-7.290
94.000,-7.340
95.000,-7.400
96.000,-7.580
97.000,-7.910
98.000,-8.180
99.000,-8.300
100.000,-8.450
101.000,-8.660
102.000,-8.860
103.000,-9.090
104.000,-9.240
105.000,-9.350
106.000,-9.520
107.000,-9.740
108.000,-9.990
109.000,-10.220
110.000,-10.420
111.000,-10.600
112.000,-10.830
113.000,-11.050
114.000,-11.230
115.000,-11.440
116.000,-11.600
117.000,-11.700
118.000,-11.890
119.000,-12.160
120.000,-12.380
121.000,-12.630
122.000,-12.820
123.000,-12.880
124.000,-12.960
125.000,-13.110
126.000,-13.350
127.000,-13.590
128.000,-13.830
129.000,-13.970
130.000,-14.120
131.000,-14.470
132.000,-14.680
133.000,-14.730
134.000,-15.050
135.000,-15.450
136.000,-15.740
137.000,-15.820
138.000,-15.710
139.000,-15.850
140.000,-16.460
141.000,-16.930
142.000,-17.090
143.000,-17.230
144.000,-17.350
145.000,-17.610
146.000,-17.860
147.000,-17.940
148.000,-18.030
149.000,-18.350
150.000,-18.720
151.000,-18.870
152.000,-18.770
153.000,-18.640
154.000,-18.740
155.000,-18.920
156.000,-19.060
157.000,-19.220
158.000,-19.270
159.000,-19.190
160.000,-19.110
161.000,-18.990
162.000,-18.880
163.000,-18.990
164.000,-19.200
165.000,-19.270
166.000,-19.140
167.000,-18.900
168.000,-18.710
169.000,-18.560
170.000,-18.430
171.000,-18.130
172.000,-17.930
173.000,-18.040
174.000,-18.010
175.000,-17.810
176.000,-17.480
177.000,-17.350
178.000,-17.460
179.000,-17.530
ENDFIL:,EOF
